Frame,Time,X,Y,Z,vx,vy,vz,ax,ay,az
1,0,301.38,203.619,44.757,0,0,0,0,0,0
2,0.00333,301.433,203.618,44.876,5.405405405,-1.201201201,38.43843844,1973.165916,-358.561075,1943.465827
3,0.00666,301.451,203.614,45.004,11.9760479,-2.395209581,44.91017964,10.76769696,-2339.820548,7682.751775
4,0.01,301.491,203.606,45.154,12.01201201,-10.21021021,70.57057057,-1352.704055,6402.799196,-5951.897844
5,0.01333,301.531,203.572,45.389,7.507507508,11.11111111,50.75075075,-1984.77595,-1178.823534,4359.973071
6,0.01666,301.556,203.609,45.558,0.898203593,7.185628743,65.26946108,1079.730812,6.460618171,-570.6879385
7,0.02,301.559,203.633,45.776,4.504504505,7.207207207,63.36336336,3066.129192,-1983.965948,-1803.605407
8,0.02333,301.574,203.657,45.987,14.71471471,0.600600601,57.35735736,-1182.063544,8630.845875,1926.455776
9,0.02666,301.623,203.659,46.178,10.77844311,29.34131737,63.77245509,549.1525446,-4648.953159,2664.735803
10,0.03,301.659,203.757,46.391,12.61261261,13.81381381,72.67267267,-180.3605407,-4238.472707,-2615.22784
11,0.03333,301.701,203.803,46.633,12.01201201,-0.3003003,63.96396396,618.5718545,2248.02674,302.1309058
12,0.03666,301.741,203.802,46.846,14.07185629,7.185628743,64.97005988,-3044.297121,-2600.937199,2485.992034
13,0.04,301.788,203.826,47.063,3.903903904,-1.501501502,73.27327327,90.18027036,2705.408111,-631.2618925
14,0.04333,301.801,203.821,47.307,4.204204204,7.507507508,71.17117117,-4589.203758,-4951.814846,475.4714255
15,0.04666,301.815,203.846,47.544,-11.07784431,-8.982035928,72.75449102,-369.6011979,3678.245279,-2182.34298
16,0.05,301.778,203.816,47.787,-12.31231231,3.303303303,65.46546547,1533.064596,1713.425137,11092.17325
17,0.05333,301.737,203.827,48.005,-7.207207207,9.009009009,102.4024024,905.5827149,441.4513235,-9712.469118
18,0.05666,301.713,203.857,48.346,-4.191616766,10.47904192,70.05988024,-3959.820554,3515.922247,3479.58127
19,0.06,301.699,203.892,48.58,-17.41741742,22.22222222,81.68168168,3877.751625,631.2618925,2795.588381
20,0.06333,301.641,203.966,48.852,-4.504504505,24.32432432,90.99099099,-2783.168344,-3977.921926,-5476.426418
21,0.06666,301.626,204.047,49.155,-13.77245509,11.07784431,72.75449102,2055.553348,189.7806588,4740.747776
22,0.07,301.58,204.084,49.398,-6.906906907,11.71171171,88.58858859,-631.2618925,6042.078114,-2434.8673
23,0.07333,301.557,204.123,49.693,-9.009009009,31.83183183,80.48048048,3514.600537,-1557.094668,3703.871104
24,0.07666,301.527,204.229,49.961,2.694610778,26.64670659,92.81437126,-2604.975085,833.1505517,533.0009991
25,0.08,301.536,204.318,50.271,-6.006006006,29.42942943,94.59459459,3246.489733,-3517.030544,4509.013518
26,0.08333,301.516,204.416,50.586,4.804804805,17.71771772,109.6096096,-2252.076752,883.1726478,-3515.140538
27,0.08666,301.532,204.475,50.951,-2.694610778,20.65868263,97.90419162,-4497.936209,6312.293146,3954.167513
28,0.09,301.523,204.544,51.278,-17.71771772,41.74174174,111.1111111,-901.8027036,-2885.768652,-721.4421629
29,0.09333,301.464,204.683,51.648,-20.72072072,32.13213213,108.7087087,-880.4726397,-7671.262998,-996.8429885
30,0.09666,301.395,204.79,52.01,-23.65269461,6.586826347,105.3892216,-470.8175492,-2151.924236,544.3070809
31,0.1,301.316,204.812,52.362,-25.22522523,-0.600600601,107.2072072,3877.751625,16052.08812,4509.013518
32,0.10333,301.232,204.81,52.719,-12.31231231,52.85285285,122.2222222,3787.301354,-2744.828229,-1818.185451
33,0.10666,301.191,204.986,53.126,0.299401198,43.71257485,116.1676647,9890.398843,-12098.5843,8016.550381
34,0.11,301.192,205.132,53.514,33.33333333,3.303303303,142.9429429,-12444.87731,10551.09163,5230.455681
35,0.11333,301.303,205.143,53.99,-8.108108108,38.43843844,160.3603604,-6016.698038,4820.594452,-5898.437684
36,0.11666,301.276,205.271,54.524,-28.14371257,54.49101796,140.7185629,1143.529416,-4356.610187,-3290.069804
37,0.12,301.182,205.453,54.994,-24.32432432,39.93993994,129.7297297,6132.258385,1442.884326,991.982974
38,0.12333,301.101,205.586,55.426,-3.903903904,44.74474474,133.033033,-4941.554815,-2917.358746,3836.441502
39,0.12666,301.088,205.735,55.869,-20.35928144,35.02994012,145.8083832,251.4257238,5605.932226,2378.853449
40,0.13,301.02,205.852,56.356,-19.51951952,53.75375375,153.7537538,2705.408111,-450.9013518,7394.78217
41,0.13333,300.955,206.031,56.868,-10.51051051,52.25225225,178.3783784,-170.3705108,-2204.82661,-4116.432341
42,0.13666,300.92,206.205,57.462,-11.07784431,44.91017964,164.6706587,-2347.627128,2917.507489,-1560.239288
43,0.14,300.883,206.355,58.012,-18.91891892,54.65465465,159.4594595,-5771.537303,-450.9013518,3426.850274
44,0.14333,300.82,206.537,58.543,-38.13813814,53.15315315,170.8708709,-2842.838523,1031.133091,-4379.413129
45,0.14666,300.693,206.714,59.112,-47.60479042,56.58682635,156.2874251,4362.801613,3557.377881,3467.198419
46,0.15,300.534,206.903,59.634,-33.03303303,68.46846847,167.8678679,11543.07461,8747.486225,4148.292437
47,0.15333,300.424,207.131,60.193,5.405405405,97.5975976,181.6816817,-1083.783249,-14113.75231,6400.099187
48,0.15666,300.442,207.456,60.798,1.796407186,50.5988024,202.994012,-19059.36199,-6338.135618,-12135.19447
49,0.16,300.448,207.625,61.476,-61.86186186,29.42942943,162.4624625,3246.489733,4689.374059,11993.97596
50,0.16333,300.242,207.723,62.017,-51.05105105,45.04504505,202.4024024,3822.131459,13625.86085,-1170.993511
51,0.16666,300.072,207.873,62.691,-38.32335329,90.41916168,198.502994,684.8255262,-3694.935209,3595.06482
52,0.17,299.944,208.175,63.354,-36.03603604,78.07807808,210.5105105,-541.0816222,-5230.455681,-7755.503251
53,0.17333,299.824,208.435,64.055,-37.83783784,60.66066066,184.6846847,-415.5312458,9565.858678,4059.732171
54,0.17666,299.698,208.637,64.67,-39.22155689,92.51497006,198.2035928,-3272.033911,-5581.166523,6561.834523
55,0.18,299.567,208.946,65.332,-50.15015015,73.87387387,220.1201201,4959.91487,360.7210814,-4509.013518
56,0.18333,299.4,209.192,66.065,-33.63363363,75.07507508,205.1051051,-2577.157726,-1685.885054,5569.846698
57,0.18666,299.288,209.442,66.748,-42.21556886,69.46107784,223.6526946,-1566.430714,9143.389867,-518.1954158
58,0.19,299.147,209.674,67.495,-47.44744745,100,221.9219219,-541.0816222,-7935.863792,-631.2618925
59,0.19333,298.989,210.007,68.234,-49.24924925,73.57357357,219.8198198,4270.062802,-245.9707374,-6671.18
60,0.19666,298.825,210.252,68.966,-35.02994012,72.75449102,197.6047904,-6684.85546,16339.17255,17979.90037
61,0.2,298.708,210.495,69.626,-57.35735736,127.3273273,257.6576577,5500.996492,-7484.96244,-6583.159736
62,0.20333,298.517,210.919,70.484,-39.03903904,102.4024024,235.7357357,-7067.811189,-5486.686449,-7944.233817
63,0.20666,298.387,211.26,71.269,-62.5748503,84.13173653,209.2814371,-1045.274182,-2441.844476,7650.717877
64,0.21,298.178,211.541,71.968,-66.06606607,75.97597598,234.8348348,3697.391085,10821.63244,7484.96244
65,0.21333,297.958,211.794,72.75,-53.75375375,112.012012,259.7597598,-1030.59309,-7653.172944,-7606.192803
66,0.21666,297.779,212.167,73.615,-57.18562874,86.52694611,234.4311377,-2838.634109,2415.463619,8212.791658
67,0.22,297.588,212.456,74.398,-66.66666667,94.59459459,261.8618619,-5861.717573,721.4421629,-7665.322981
68,0.22333,297.366,212.771,75.27,-86.18618619,96.996997,236.3363363,3314.259936,9173.547502,1855.445563
69,0.22666,297.079,213.094,76.057,-75.1497006,127.5449102,242.5149701,10901.48559,-8067.158557,4174.097724
70,0.23,296.828,213.52,76.867,-38.73873874,100.6006006,256.4564565,-14068.12218,8026.044062,901.8027036
71,0.23333,296.699,213.855,77.721,-85.58558559,127.3273273,259.4594595,4212.82263,-13421.20024,-772.7423167
72,0.23666,296.414,214.279,78.585,-71.55688623,82.63473054,256.8862275,-154.2472588,12841.55539,5265.942194
73,0.24,296.175,214.555,79.443,-72.07207207,125.5255255,274.4744745,5771.537303,-1442.884326,-9829.649469
74,0.24333,295.935,214.973,80.357,-52.85285285,120.7207207,241.7417417,-7325.121961,1599.754796,3019.419052
75,0.24666,295.759,215.375,81.162,-77.24550898,126.0479042,251.7964072,-3306.221349,-6180.388858,15780.86746
76,0.25,295.501,215.796,82.003,-88.28828829,105.4054054,304.5045045,6853.700547,541.0816222,-11452.89434
77,0.25333,295.207,216.147,83.017,-65.46546547,107.2072072,266.3663664,-6324.768962,-1085.403254,3356.920064
78,0.25666,294.989,216.504,83.904,-86.52694611,103.5928144,277.5449102,-617.2582278,-536.2313082,-5684.536413
79,0.26,294.7,216.85,84.831,-88.58858859,101.8018018,258.5585586,-6402.799196,9739.469199,11362.71407
80,0.26333,294.405,217.189,85.692,-109.9099099,134.2342342,296.3963964,17001.95097,598.5917946,-6470.299398
81,0.26666,294.039,217.636,86.679,-53.29341317,136.2275449,274.8502994,-12275.71291,-237.1585254,11306.0818
82,0.27,293.861,218.091,87.597,-94.29429429,135.4354354,312.6126126,721.4421629,-6853.700547,-19298.57786
83,0.27333,293.547,218.542,88.638,-91.89189189,112.6126126,248.3483483,-1895.405682,8350.315034,16949.57081
84,0.27666,293.241,218.917,89.465,-98.20359281,140.4191617,304.7904192,20770.88742,-18035.6232,8096.231338
85,0.28,292.913,219.386,90.483,-28.82882883,80.18018018,331.8318318,-12895.77866,8927.846766,-17765.51326
86,0.28333,292.817,219.653,91.588,-71.77177177,109.9099099,272.6726727,-14141.2924,18602.51577,7936.673794
87,0.28666,292.578,220.019,92.496,-118.8622754,171.8562874,299.1017964,3939.092738,-3172.163522,-4586.231324
88,0.29,292.181,220.593,93.495,-105.7057057,161.2612613,283.7837838,6583.159736,-7845.683521,7394.78217
89,0.29333,291.829,221.13,94.44,-83.78378378,135.1351351,308.4084084,-1183.413548,-11360.28406,3948.491838
90,0.29666,291.55,221.58,95.467,-87.7245509,97.30538922,321.5568862,-6102.86144,15282.32309,-2947.657041
91,0.3,291.257,221.905,96.541,-108.1081081,148.3483483,311.7117117,-3607.210814,-3967.931896,-5591.176762
92,0.30333,290.897,222.399,97.579,-120.1201201,135.1351351,293.0930931,7210.911618,-1649.974947,635.5819055
93,0.30666,290.497,222.849,98.555,-96.10778443,129.6407186,295.2095808,-1884.616159,12344.35698,15370.34901
94,0.31,290.176,223.282,99.541,-102.4024024,170.8708709,346.5465465,6222.438655,-4869.734599,-18667.31596
95,0.31333,289.835,223.851,100.695,-81.68168168,154.6546547,284.3843844,-9007.497004,2917.898748,18355.73503
96,0.31666,289.563,224.366,101.642,-111.6766467,164.3712575,345.508982,3585.912278,-6775.304115,-20188.8934
97,0.32,289.19,224.915,102.796,-99.6996997,141.7417417,278.0780781,991.982974,-2795.588381,28677.32597
98,0.32333,288.858,225.387,103.722,-96.3963964,132.4324324,373.5735736,-6926.330765,5994.827972,-25061.20513
99,0.32666,288.537,225.828,104.966,-119.4610778,152.3952096,290.1197605,2589.900309,3823.339995,8352.771718
100,0.33,288.138,226.337,105.935,-110.8108108,165.1651652,318.018018,-3697.391085,9739.469199,1172.343515
101,0.33333,287.769,226.887,106.994,-123.1231231,197.5975976,321.9219219,14316.52292,-20677.20199,9600.688783
102,0.33666,287.359,227.545,108.066,-75.4491018,128.742515,353.8922156,-8789.132637,9556.331045,-4357.148572
103,0.34,287.107,227.975,109.248,-104.8048048,160.6606607,339.3393393,-4869.734599,-1713.425137,-6673.340007
104,0.34333,286.758,228.51,110.378,-121.021021,154.954955,317.1171171,1996.925987,-948.5128436,8615.995831
105,0.34666,286.355,229.026,111.434,-114.3712575,151.7964072,345.8083832,2864.207389,5441.186462,-5892.89135
106,0.35,285.973,229.533,112.589,-104.8048048,169.96997,326.1261261,-8206.404603,11001.99298,-1533.064596
107,0.35333,285.624,230.099,113.675,-132.1321321,206.6066066,321.021021,5693.237068,-14661.31395,15086.02523
108,0.35666,285.184,230.787,114.744,-113.1736527,157.7844311,371.257485,1426.719846,-1926.071792,-12253.63913
109,0.36,284.806,231.314,115.984,-108.4084084,151.3513514,330.3303303,-2074.146218,9288.567847,6853.700547
110,0.36333,284.445,231.818,117.084,-115.3153153,182.2822823,353.1531532,463.321389,-4209.852621,-7330.521977
111,0.36666,284.061,232.425,118.26,-113.7724551,168.2634731,328.742515,-372.0239297,9591.864445,7038.843498
112,0.37,283.681,232.987,119.358,-115.015015,200.3003003,352.2522523,-901.8027036,-90.18027036,-2074.146218
113,0.37333,283.298,233.654,120.531,-118.018018,200,345.3453453,5770.4573,-14745.28421,-4716.104139
114,0.37666,282.905,234.32,121.681,-98.80239521,150.8982036,329.6407186,-628.2951172,9216.610206,10366.33105
115,0.38,282.575,234.824,122.782,-100.9009009,181.6816817,364.2642643,-4509.013518,-5140.275411,-3877.751625
116,0.38333,282.239,235.429,123.995,-115.9159159,164.5645646,351.3513514,14.3100429,661.2319824,1482.304444
117,0.38666,281.853,235.977,125.165,-115.8682635,166.7664671,356.2874251,7718.015983,8331.774709,-4444.905302
118,0.39,281.466,236.534,126.355,-90.09009009,194.5945946,341.4414414,-9288.567847,-3426.850274,4599.193788
119,0.39333,281.166,237.182,127.492,-121.021021,183.1831832,356.7567568,-1869.215604,7028.12107,-3647.440935
120,0.39666,280.763,237.792,128.68,-127.245509,206.5868263,344.6107784,23352.17357,-23190.92731,11368.80363
121,0.4,280.338,238.482,129.831,-49.24924925,129.1291291,382.5825826,-25430.83624,11993.97596,-12895.77866
122,0.40333,280.174,238.912,131.105,-133.9339339,169.0690691,339.6396396,14775.7943,14323.54294,7337.001996
123,0.40666,279.728,239.475,132.236,-84.73053892,216.7664671,364.0718563,-5021.246281,-13921.017,-17384.98511
124,0.41,279.445,240.199,133.452,-101.5015015,170.2702703,306.006006,-9829.649469,11452.89434,24168.31246
125,0.41333,279.107,240.766,134.471,-134.2342342,208.4084084,386.4864865,11089.74325,-16551.04962,-14912.95471
126,0.41666,278.66,241.46,135.758,-97.30538922,153.2934132,336.8263473,4947.487557,24953.06092,20982.20347
127,0.42,278.335,241.972,136.883,-80.78078078,236.6366366,406.9069069,-16052.08812,-13256.49974,-26422.81922
128,0.42333,278.066,242.76,138.238,-134.2342342,192.4924925,318.9189189,11269.56379,-3050.199145,13469.53038
129,0.42666,277.619,243.401,139.3,-96.70658683,182.3353293,363.7724551,-5571.475595,-5140.767717,-2370.239292
130,0.43,277.296,244.01,140.515,-115.3153153,165.1651652,355.8558559,541.0816222,17224.43164,1893.785678
131,0.43333,276.912,244.56,141.7,-113.5135135,222.5225225,362.1621622,-1246.593737,-17372.93208,-9676.28901
132,0.43666,276.534,245.301,142.906,-117.6646707,164.6706587,329.9401198,-2443.459631,11296.92926,8388.574311
133,0.44,276.141,245.851,144.008,-125.8258258,202.4024024,357.957958,11903.79569,-11633.25488,2615.22784
134,0.44333,275.722,246.525,145.2,-86.18618619,163.6636637,366.6666667,-9722.729149,8214.504627,-4735.274196
135,0.44666,275.435,247.07,146.421,-118.5628743,191.0179641,350.8982036,7625.682982,3408.51447,3642.173494
136,0.45,275.039,247.708,147.593,-93.09309309,202.4024024,363.0630631,-3607.210814,-8026.044062,-8927.846766
137,0.45333,274.729,248.382,148.802,-105.1051051,175.6756757,333.3333333,2522.077561,471.4214133,13636.39088
138,0.45666,274.379,248.967,149.912,-96.70658683,177.245509,378.742515,-8178.873412,10858.68399,-3076.061827
139,0.46,274.056,249.559,151.177,-124.024024,213.5135135,368.4684685,4779.554329,-13166.31947,-4148.292437
140,0.46333,273.643,250.27,152.404,-108.1081081,169.6696697,354.6546547,7200.111586,13154.16944,-4274.922816
141,0.46666,273.283,250.835,153.585,-84.13173653,213.4730539,340.4191617,-12663.08081,-10956.93923,7319.072811
142,0.47,273.002,251.548,154.722,-126.4264264,176.8768769,364.8648649,12444.87731,4238.472707,-2074.146218
143,0.47333,272.581,252.137,155.937,-84.98498498,190.990991,357.957958,-4509.013518,-6015.888036,-3648.520938
144,0.47666,272.298,252.773,157.129,-100,170.9580838,345.8083832,6563.449677,25238.67408,18922.34305
145,0.48,271.964,253.344,158.284,-78.07807808,255.2552553,409.009009,-4058.112166,-19749.47921,-34448.86328
146,0.48333,271.704,254.194,159.646,-91.59159159,189.4894895,294.2942943,-8279.304821,9899.579679,28326.86492
147,0.48666,271.399,254.825,160.626,-119.1616766,222.4550898,388.6227545,11671.10673,-17062.76178,-16823.44972
148,0.49,271.001,255.568,161.924,-80.18018018,165.4654655,332.4324324,3607.210814,20290.56083,17044.0711
149,0.49333,270.734,256.119,163.031,-68.16816817,233.033033,389.1891892,-21786.90532,-19270.49777,-20759.55224
150,0.49666,270.507,256.895,164.327,-140.7185629,168.8622754,320.0598802,13360.01999,13188.81361,12695.3839
151,0.5,270.037,257.459,165.396,-96.0960961,212.9129129,362.4624625,7034.061088,-3967.931896,-180.3605407
152,0.50333,269.717,258.168,166.603,-72.67267267,199.6996997,361.8618619,-18366.26506,4855.424557,-1314.36394
153,0.50666,269.475,258.833,167.808,-133.8323353,215.8682635,357.4850299,8151.415785,-9606.131643,770.9671018
154,0.51,269.028,259.554,169.002,-106.6066066,183.7837838,360.0600601,-360.7210814,-811.6224332,-2254.506759
155,0.51333,268.673,260.166,170.201,-107.8078078,181.0810811,352.5525526,6660.379968,17189.87154,6696.020075
156,0.51666,268.314,260.769,171.375,-85.62874251,238.3233533,374.8502994,-9247.836527,-19026.52051,-11261.39586
157,0.52,268.028,261.565,172.627,-116.5165165,174.7747748,337.2372372,5500.996492,16232.44866,1713.425137
158,0.52333,267.64,262.147,173.75,-98.1981982,228.8288288,342.9429429,2246.136734,-5600.35679,16055.32813
159,0.52666,267.313,262.909,174.892,-90.71856287,210.1796407,396.4071856,98.25523469,3245.922246,-8185.064838
160,0.53,267.01,263.611,176.216,-90.39039039,221.021021,369.0690691,1172.343515,-8837.666495,-9288.567847
161,0.53333,266.709,264.347,177.445,-86.48648649,191.5915916,338.1381381,-6215.958635,5581.996735,3472.21041
162,0.53666,266.421,264.985,178.571,-107.1856287,210.1796407,349.7005988,15637.92628,-260.5782662,6158.584272
163,0.54,266.063,265.687,179.739,-54.95495495,209.3093093,370.2702703,-21192.36353,4599.193788,-3156.309463
164,0.54333,265.88,266.384,180.972,-125.5255255,224.6246246,359.7597598,6946.040824,-7574.602709,-2481.307439
165,0.54666,265.462,267.132,182.17,-102.3952096,199.4011976,351.497006,896.9491561,-4136.410784,6969.391852
166,0.55,265.12,267.798,183.344,-99.3993994,185.5855856,374.7747748,-5951.897844,9468.928388,-90.18027037
167,0.55333,264.789,268.416,184.592,-119.2192192,217.1171171,374.4744745,13863.46156,1872.725614,-7979.063921
168,0.55666,264.392,269.139,185.839,-73.05389222,223.3532934,347.9041916,-11304.46665,-4564.426738,-3912.981072
169,0.56,264.148,269.885,187.001,-110.8108108,208.1081081,334.8348348,7034.061088,4418.833248,27865.70354
170,0.56333,263.779,270.578,188.116,-87.38738739,222.8228228,427.6276276,887.7626615,-11259.30376,-31133.79334
171,0.56666,263.488,271.32,189.54,-84.43113772,185.3293413,323.9520958,-15630.3889,18957.87645,13687.89637
172,0.57,263.206,271.939,190.622,-136.6366366,248.6486486,369.6696697,21102.18326,-17765.51326,1623.244866
173,0.57333,262.751,272.767,191.853,-66.36636637,189.4894895,375.0750751,-5065.215186,12147.33642,1460.97438
174,0.57666,262.53,273.398,193.102,-83.23353293,229.9401198,379.9401198,-4840.07978,3443.509485,-4333.728831
175,0.58,262.252,274.166,194.371,-99.3993994,241.4414414,365.4654655,10911.81271,-14879.74461,-12535.05758
176,0.58333,261.921,274.97,195.588,-63.06306306,191.8918919,323.7237237,-10462.80137,22215.1266,31447.26428
177,0.58666,261.711,275.609,196.666,-97.90419162,265.8682635,428.4431138,-2605.51347,-21519.24236,-30813.64918
178,0.59,261.384,276.497,198.097,-106.6066066,193.993994,325.5255255,1713.425137,7124.241358,12625.23785
179,0.59333,261.029,277.143,199.181,-100.9009009,217.7177177,367.5675676,2967.848898,5108.955317,9559.64866
180,0.59666,260.693,277.868,200.405,-91.01796407,234.7305389,399.4011976,8010.089763,-6082.672008,-13397.16855
181,0.6,260.389,278.652,201.739,-64.26426426,214.4144144,354.6546547,-11362.71407,3246.489733,6.12816E-09
182,0.60333,260.175,279.366,202.92,-102.1021021,225.2252252,354.6546547,3418.480249,3393.910175,10560.27166
183,0.60666,259.835,280.116,204.101,-90.71856287,236.5269461,389.8203593,907.4476607,-8238.903323,-4055.114672
184,0.61,259.532,280.906,205.403,-87.68768769,209.009009,376.2762763,-3246.489733,12895.77866,-1172.343515
185,0.61333,259.24,281.602,206.656,-98.4984985,251.951952,372.3723724,-1439.914317,-7329.441974,-6448.699333
186,0.61666,258.912,282.441,207.896,-103.2934132,227.5449102,350.8982036,13213.84851,-6179.042896,14611.22638
187,0.62,258.567,283.201,209.068,-59.15915916,206.9069069,399.6996997,-8927.846766,9649.288929,-11362.71407
188,0.62333,258.37,283.89,210.399,-88.88888889,239.039039,361.8618619,-819.1824559,-11813.34542,-5989.697957
189,0.62666,258.074,284.686,211.604,-91.61676647,199.7005988,341.9161677,-442.0139599,22387.38793,22605.1646
190,0.63,257.768,285.353,212.746,-93.09309309,274.4744745,417.4174174,-4.19498E-09,-20561.10164,-21462.90435
191,0.63333,257.458,286.267,214.136,-93.09309309,206.006006,345.9459459,-1085.133253,3231.369688,10658.01195
192,0.63666,257.148,286.953,215.288,-96.70658683,216.7664671,381.4371257,5577.397829,6488.614183,-4152.56233
193,0.64,256.825,287.677,216.562,-78.07807808,238.4384384,367.5675676,4599.193788,180.3605407,11633.25488
194,0.64333,256.565,288.471,217.786,-62.76276276,239.039039,406.3063063,-8395.135169,-1833.305496,-21943.77579
195,0.64666,256.356,289.267,219.139,-90.71856287,232.9341317,333.2335329,-2419.232313,2816.829523,10819.11271
196,0.65,256.053,290.045,220.252,-98.7987988,242.3423423,369.3693694,7034.061088,-90.18027036,17224.43164
197,0.65333,255.724,290.852,221.482,-75.37537538,242.042042,426.7267267,-2090.076266,-5072.775208,-27806.30336
198,0.65666,255.473,291.658,222.903,-82.33532934,225.1497006,334.1317365,-14549.58131,2000.638094,10730.01001
199,0.66,255.198,292.41,224.019,-130.9309309,231.8318318,369.96997,31382.73409,-3787.571355,12535.05758
200,0.66333,254.762,293.182,225.251,-26.42642643,219.2192192,411.7117117,-25960.30783,9603.11879,-16733.84017
201,0.66666,254.674,293.912,226.622,-112.8742515,251.1976048,355.988024,7361.066829,-10563.3799,-2646.969103
202,0.67,254.297,294.751,227.811,-88.28828829,215.9159159,347.1471471,991.982974,16322.62894,20741.46218
203,0.67333,254.003,295.47,228.967,-84.98498498,270.2702703,416.2162162,-6217.308639,-20832.45246,-9095.517268
204,0.67666,253.72,296.37,230.353,-105.6886228,200.8982036,385.9281437,11593.31012,10070.75777,-4238.434713
205,0.68,253.367,297.041,231.642,-66.96696697,234.5345345,371.7717718,-13076.1392,11182.35352,7124.241358
206,0.68333,253.144,297.822,232.88,-110.5105105,271.7717718,395.4954955,17541.95259,-14360.26305,-3952.001848
207,0.68666,252.776,298.727,234.197,-52.09580838,223.9520958,382.3353293,-15511.40584,560.9970112,-8916.999039
208,0.69,252.602,299.475,235.474,-103.9039039,225.8258258,352.5525526,-2525.04757,15330.64596,10010.01001
209,0.69333,252.256,300.227,236.648,-112.3123123,276.8768769,385.8858859,15385.72613,-22097.13625,6935.780793
210,0.69666,251.882,301.149,237.933,-61.07784431,203.2934132,408.9820359,-10304.68598,13579.41182,-10331.60523
211,0.7,251.678,301.828,239.299,-95.4954955,248.6486486,374.4744745,-2344.687029,-9198.387577,-1623.244866
212,0.70333,251.36,302.656,240.546,-103.3033033,218.018018,369.0690691,20232.78066,12121.68634,22055.82612
213,0.70666,251.016,303.382,241.775,-35.92814371,258.3832335,442.5149701,-22779.60129,-8219.252276,-32419.38198
214,0.71,250.896,304.245,243.253,-112.012012,230.9309309,334.2342342,10010.01001,17675.33299,13527.04055
215,0.71333,250.523,305.014,244.366,-78.67867868,289.7897898,379.2792793,-1277.913831,-25345.51599,2985.668951
216,0.71666,250.261,305.979,245.629,-82.93413174,205.3892216,389.2215569,-4480.169509,8366.500532,3316.989046
217,0.72,249.984,306.665,246.929,-97.8978979,233.3333333,400.3003003,3066.129192,1803.605407,-3967.931896
218,0.72333,249.658,307.442,248.262,-87.68768769,239.3393393,387.0870871,9789.149348,6528.079571,5765.867286
219,0.72666,249.366,308.239,249.551,-55.08982036,261.0778443,406.2874251,-9130.468631,-11543.50952,-9794.56634
220,0.73,249.182,309.111,250.908,-85.58558559,222.5225225,373.5735736,-3787.571355,20561.10164,-3336.670003
221,0.73333,248.897,309.852,252.152,-98.1981982,290.990991,362.4624625,3235.149699,-22829.10844,18465.35536
222,0.73666,248.57,310.821,253.359,-87.4251497,214.9700599,423.9520958,1629.690934,-346.181457,-13195.27423
223,0.74,248.278,311.539,254.775,-81.98198198,213.8138138,379.8798799,-3967.931896,15511.0065,4689.374059
224,0.74333,248.005,312.251,256.04,-95.1951952,265.4654655,395.4954955,7817.873438,-5813.117428,-2243.706727
225,0.74666,247.688,313.135,257.357,-69.16167665,246.1077844,388.0239521,-62.1834499,-4184.327036,4574.65605
226,0.75,247.457,313.957,258.653,-69.36936937,232.1321321,403.3033033,-13076.1392,13256.49974,-6763.520277
227,0.75333,247.226,314.73,259.996,-112.9129129,276.2762763,380.7807808,18712.9461,-34504.21344,6850.460538
228,0.75666,246.85,315.65,261.264,-50.5988024,161.3772455,403.5928144,-16948.6242,37098.2155,-1165.603195
229,0.76,246.681,316.189,262.612,-107.2072072,285.2852853,399.6996997,12715.41812,-14879.74461,-5140.275411
230,0.76333,246.324,317.139,263.943,-64.86486486,235.7357357,382.5825826,148.2304444,57.78017323,14760.94425
231,0.76666,246.108,317.924,265.217,-64.37125749,235.9281437,431.7365269,-9408.544404,5696.650073,-14267.19846
232,0.77,245.893,318.712,266.659,-95.7957958,254.954955,384.0840841,10190.37055,-5951.897844,-2434.8673
233,0.77333,245.574,319.561,267.938,-61.86186186,235.1351351,375.975976,-13700.65107,9229.167669,9911.729715
234,0.77666,245.368,320.344,269.19,-107.4850299,265.8682635,408.9820359,8714.566336,-6324.406805,-17614.33706
235,0.78,245.009,321.232,270.556,-78.37837838,244.7447447,350.1501502,-6222.438655,5591.176762,24979.93489
236,0.78333,244.748,322.047,271.722,-99.0990991,263.3633634,433.3333333,20229.00065,-10666.38198,-3536.470602
237,0.78666,244.418,322.924,273.165,-31.73652695,227.8443114,421.5568862,-14863.72887,2092.971095,-15175.4537
238,0.79,244.312,323.685,274.573,-81.38138138,234.8348348,370.8708709,-5320.635951,13797.58137,10821.63244
239,0.79333,244.041,324.467,275.808,-99.0990991,280.7807808,406.9069069,13935.28178,-19762.97925,-7019.211044
240,0.79666,243.711,325.402,277.163,-52.69461078,214.9700599,383.5329341,-17489.97016,19344.16757,9965.234337
241,0.8,243.535,326.12,278.444,-111.1111111,279.5795796,416.8168168,15420.82623,-5591.176762,-10911.81271
242,0.80333,243.165,327.051,279.832,-59.75975976,260.960961,380.4804805,-1564.654691,-13361.53006,8109.474312
243,0.80666,242.966,327.92,281.099,-64.97005988,216.4670659,407.4850299,-10577.91629,21503.36001,-1431.834502
244,0.81,242.749,328.643,282.46,-100.3003003,288.2882883,402.7027027,8206.404603,-23266.50975,-5410.816222
245,0.81333,242.415,329.603,283.801,-72.97297297,210.8108108,384.6846847,-6767.570289,23636.68086,13680.13101
246,0.81666,242.172,330.305,285.082,-95.50898204,289.5209581,430.239521,813.2303123,-22576.89939,-20292.53248
247,0.82,241.853,331.272,286.519,-92.79279279,214.1141141,362.4624625,8116.224332,23086.14921,16232.44866
248,0.82333,241.544,331.985,287.726,-65.76576577,290.990991,416.5165165,-8841.986508,-9882.029626,-5589.286757
249,0.82666,241.325,332.954,289.113,-95.20958084,258.0838323,397.9041916,9265.064843,-10197.5474,-2339.551355
250,0.83,241.007,333.816,290.442,-64.26426426,224.024024,390.0900901,-6673.340007,7214.421629,14609.2038
251,0.83333,240.793,334.562,291.741,-86.48648649,248.048048,438.7387387,2954.888859,6879.890626,-17657.24294
252,0.83666,240.505,335.388,293.202,-76.64670659,270.9580838,379.9401198,-338.6440691,-1464.675978,5916.041898
253,0.84,240.249,336.293,294.471,-77.77777778,266.0660661,399.6996997,-4418.833248,-1713.425137,7935.863792
254,0.84333,239.99,337.179,295.802,-92.49249249,260.3603604,426.1261261,7186.071544,-5269.065797,-10812.72242
255,0.84666,239.682,338.046,297.221,-68.56287425,242.8143713,390.1197605,-241.4656042,7590.957159,11229.90034
256,0.85,239.453,338.857,298.524,-69.36936937,268.1681682,427.6276276,4599.193788,-2885.768652,-13527.04055
257,0.85333,239.222,339.75,299.948,-54.05405405,258.5585586,382.5825826,-13258.11975,-3918.791749,11703.99509
258,0.85666,239.042,340.611,301.222,-98.20359281,245.508982,421.5568862,10521.11669,-768.2751775,19.38185451
259,0.86,238.714,341.431,302.63,-63.06306306,242.9429429,421.6216216,-7665.322981,7845.683521,-9739.469199
260,0.86333,238.504,342.24,304.034,-88.58858859,269.0690691,389.1891892,-2527.747578,1106.733318,4595.143776
261,0.86666,238.209,343.136,305.33,-97.00598802,272.754491,404.491018,17175.55341,-17826.72988,-625.3340005
262,0.87,237.885,344.047,306.681,-39.63963964,213.2132132,402.4024024,-20741.46218,17675.33299,5140.275411
263,0.87333,237.753,344.757,308.021,-108.7087087,272.0720721,419.5195195,13224.63965,-5459.416367,-3254.319756
264,0.87666,237.391,345.663,309.418,-64.67065868,253.8922156,408.6826347,-327.8763722,7421.096739,1626.191432
265,0.88,237.175,346.511,310.783,-65.76576577,278.6786787,414.1141141,-8837.666495,-13166.31947,-7214.421629
266,0.88333,236.956,347.439,312.162,-95.1951952,234.8348348,390.0900901,5480.20643,5093.565271,-3317.769947
267,0.88666,236.639,348.221,313.461,-76.94610778,251.7964072,379.0419162,1189.561321,11015.62317,28572.62225
268,0.89,236.382,349.062,314.727,-72.97297297,288.5885886,474.4744745,3877.751625,-16863.71056,-24078.13219
269,0.89333,236.139,350.023,316.307,-60.06006006,232.4324324,394.2942943,-4171.782507,16064.77816,-4130.742384
270,0.89666,235.939,350.797,317.62,-73.95209581,285.9281437,380.5389222,5148.305105,-9453.230347,22370.15961
271,0.9,235.692,351.752,318.891,-56.75675676,254.3543544,455.2552553,-14158.30245,-3877.751625,-20290.56083
272,0.90333,235.503,352.599,320.407,-103.9039039,241.4414414,387.6876877,8544.985618,6346.369026,3877.211624
273,0.90666,235.157,353.403,321.698,-75.4491018,262.5748503,400.5988024,7394.715882,8957.377902,17892.68203
274,0.91,234.905,354.28,323.036,-50.75075075,292.4924925,460.3603604,-11092.17325,-12264.51677,-31653.2749
275,0.91333,234.736,355.254,324.569,-87.68768769,251.6516517,354.954955,14374.57309,582.9317476,26024.56802
276,0.91666,234.444,356.092,325.751,-39.82035928,253.5928144,441.6167665,-19186.69001,11826.43076,-1491.056835
277,0.92,234.311,356.939,327.226,-103.9039039,293.0930931,436.6366366,15240.46569,-17675.33299,-14248.48272
278,0.92333,233.965,357.915,328.68,-53.15315315,234.2342342,389.1891892,-8853.326542,18580.6457,15923.83774
279,0.92666,233.788,358.695,329.976,-82.63473054,296.1077844,442.2155689,1274.356934,-12950.57832,-14077.95619
280,0.93,233.512,359.684,331.453,-78.37837838,252.8528529,395.1951952,5230.455681,-541.0816222,5591.176762
281,0.93333,233.251,360.526,332.769,-60.96096096,251.0510511,413.8138138,-6148.998435,8495.57547,16261.33875
282,0.93666,233.048,361.362,334.147,-81.43712575,279.3413174,467.9640719,2444.267208,-10987.62716,-27900.98715
283,0.94,232.776,362.295,335.71,-73.27327327,242.6426426,374.7747748,2795.588381,9919.82974,22545.06759
284,0.94333,232.532,363.103,336.958,-63.96396396,275.6756757,449.8498498,-7494.95247,111.7803351,-8316.564933
285,0.94666,232.319,364.021,338.456,-88.92215569,276.0479042,422.1556886,279.6909283,-2898.66402,-2677.387847
286,0.95,232.022,364.943,339.866,-87.98798799,266.3663664,413.2132132,8206.404603,-1082.163244,5591.176762
287,0.95333,231.729,365.83,341.242,-60.66066066,262.7627628,431.8318318,-4890.524662,3539.980613,-1916.735746
288,0.95666,231.527,366.705,342.68,-76.94610778,274.5508982,425.4491018,-698.5543398,1595.503496,3259.65106
289,0.96,231.27,367.622,344.101,-79.27927928,279.8798799,436.3363363,2164.326489,-11723.43515,811.6224333
290,0.96333,231.006,368.554,345.554,-72.07207207,240.8408408,439.039039,-3171.96951,11831.43547,-6598.549782
291,0.96666,230.766,369.356,347.016,-82.63473054,280.239521,417.0658683,195.4336997,-377.4077782,2173.190437
292,0.97,230.49,370.292,348.409,-81.98198198,278.978979,424.3243243,2885.768652,5771.537303,7394.78217
293,0.97333,230.217,371.221,349.822,-72.37237237,298.1981982,448.9489489,424.7112733,-24004.42197,-6877.190618
294,0.97666,229.976,372.214,351.317,-70.95808383,218.2634731,426.0479042,1554.586247,12513.94821,5867.587262
295,0.98,229.739,372.943,352.74,-65.76576577,260.0600601,445.6456456,-6763.520277,16052.08812,-1172.343515
296,0.98333,229.52,373.809,354.224,-88.28828829,313.5135135,441.7417417,15903.58768,-20241.96069,-6690.890059
297,0.98666,229.226,374.853,355.695,-35.32934132,246.1077844,419.4610778,-26555.29422,8313.200432,7480.04988
298,0.99,229.108,375.675,357.096,-124.024024,273.8738739,444.4444444,24258.49273,5140.275411,721.4421629
299,0.99333,228.695,376.587,358.576,-43.24324324,290.990991,446.8468468,-12009.096,-6375.529114,587.2517606
300,0.99666,228.551,377.556,360.064,-83.23353293,269.760479,448.8023952,4870.229331,-2724.496521,-4271.814573
301,1,228.273,378.457,361.563,-66.96696697,260.6606607,434.5345345,-450.9013518,2705.408111,-901.8027036
302,1.00333,228.05,379.325,363.01,-68.46846847,269.6696697,431.5315315,960.6628801,2275.026821,8692.946061
303,1.00666,227.822,380.223,364.447,-65.26946108,277.245509,460.4790419,-10847.91629,11488.05588,-5609.970112
304,1.01,227.604,381.149,365.985,-101.5015015,315.6156156,441.7417417,14068.12218,-20200.38056,-1623.244866
305,1.01333,227.266,382.2,367.456,-54.65465465,248.3483483,436.3363363,-8402.42519,1574.914722,-482.2214457
306,1.01666,227.084,383.027,368.909,-82.63473054,253.5928144,434.7305389,195.4336997,20008.26528,21789.51155
307,1.02,226.808,383.874,370.361,-81.98198198,320.4204204,507.5075075,9018.027036,-25430.83624,-33096.15922
308,1.02333,226.535,384.941,372.051,-51.95195195,235.7357357,397.2972973,-7146.111424,19118.75732,16905.56068
309,1.02666,226.362,385.726,373.374,-75.74850299,299.4011976,453.5928144,741.0867427,-8362.193453,7151.096738
310,1.03,226.109,386.726,374.889,-73.27327327,271.4714715,477.4774775,-7484.96244,-5140.275411,-14699.38407
311,1.03333,225.865,387.63,376.479,-98.1981982,254.3543544,428.5285285,14743.6642,17573.54269,13370.98009
312,1.03666,225.538,388.477,377.906,-49.10179641,312.8742515,473.0538922,-12721.49556,-9429.003029,-14230.04991
313,1.04,225.374,389.522,379.486,-91.59159159,281.3813814,425.5255255,12264.51677,-5771.537303,10190.37055
314,1.04333,225.069,390.459,380.903,-50.75075075,262.1621622,459.4594595,-5169.165497,2551.507649,3453.040352
315,1.04666,224.9,391.332,382.433,-67.96407186,270.6586826,470.9580838,-10940.2493,423.1704902,-13153.01102
316,1.05,224.673,392.236,384.006,-104.5045045,272.0720721,427.027027,23086.14921,11543.07461,14879.74461
317,1.05333,224.325,393.142,385.428,-27.62762763,310.5105105,476.5765766,-28566.62564,-15294.19585,-4114.812336
318,1.05666,224.233,394.176,387.015,-122.754491,259.5808383,462.8742515,21198.36499,7336.301126,-6506.919268
319,1.06,223.823,395.043,388.561,-51.95195195,284.0840841,441.1411411,-10551.09163,-2525.04757,10821.63244
320,1.06333,223.65,395.989,390.03,-87.08708709,275.6756757,477.1771772,5472.916408,-9238.887698,-14904.58468
321,1.06666,223.36,396.907,391.619,-68.86227545,244.9101796,427.5449102,4163.868411,16943.50954,25109.73091
322,1.07,223.13,397.725,393.047,-54.95495495,301.5015015,511.4114114,-8567.125684,-9829.649469,-26422.81922
323,1.07333,222.947,398.729,394.75,-83.48348348,268.7687688,423.4234234,1513.624538,10367.76108,9239.697701
324,1.07666,222.669,399.624,396.16,-78.44311377,303.2934132,454.1916168,109.2921241,-14562.50255,8500.289167
325,1.08,222.407,400.637,397.677,-78.07807808,254.6546547,482.5825826,-2885.768652,6402.799196,-2705.408111
326,1.08333,222.147,401.485,399.284,-87.68768769,275.975976,473.5735736,13655.29094,-1327.053979,-4471.753406
327,1.08666,221.855,402.404,400.861,-42.21556886,271.5568862,458.6826347,-8399.6112,1952.45265,-936.25125
328,1.09,221.714,403.311,402.393,-70.27027027,278.0780781,455.5555556,3156.309463,-2705.408111,3066.129192
329,1.09333,221.48,404.237,403.91,-59.75975976,269.0690691,465.7657658,3829.961482,7760.093265,8572.2557
330,1.09666,221.281,405.133,405.461,-47.00598802,294.9101796,494.3113772,-17754.58631,-2791.794627,-12862.2832
331,1.1,221.124,406.118,407.112,-106.3063063,285.5855856,451.3513514,17404.79218,-15060.10515,-1082.163244
332,1.10333,220.77,407.069,408.615,-48.34834835,235.4354354,447.7477477,-12454.05734,13994.14195,13983.07192
333,1.10666,220.609,407.853,410.106,-89.82035928,282.0359281,494.3113772,14574.61621,-3792.382867,-7557.577298
334,1.11,220.309,408.795,411.757,-41.14114114,269.3693694,469.0690691,-5771.537303,5140.275411,-3607.210814
335,1.11333,220.172,409.692,413.319,-60.36036036,286.4864865,457.0570571,-934.7428024,-12305.55689,-51.3001538
336,1.11666,219.971,410.646,414.841,-63.47305389,245.508982,456.8862275,-5721.415776,12628.35499,12908.31511
337,1.12,219.759,411.466,416.367,-82.58258258,287.6876877,500,1623.244866,-10190.37055,-17675.33299
338,1.12333,219.484,412.424,418.032,-77.17717718,253.7537538,441.1411411,5374.096112,9482.158428,4368.613097
339,1.12666,219.227,413.269,419.501,-59.28143713,285.3293413,455.6886228,-1491.864413,-4418.793637,12277.86645
340,1.13,219.029,414.222,421.023,-64.26426426,270.5705706,496.6966967,5591.176762,-7214.421629,-6583.159736
341,1.13333,218.815,415.123,422.677,-45.64564565,246.5465465,474.7747748,-3645.280929,3284.829848,-8249.064731
342,1.13666,218.663,415.944,424.258,-57.78443114,257.4850299,447.3053892,577.4177491,2838.903301,6695.89235
343,1.14,218.47,416.804,425.752,-55.85585586,266.966967,469.6696697,-14609.2038,4238.472707,11993.97596
344,1.14333,218.284,417.693,427.316,-104.5045045,281.0810811,509.6096096,17896.19365,-17515.49251,-24284.4128
345,1.14666,217.936,418.629,429.013,-44.91017964,222.754491,428.742515,-6244.187463,15215.29418,14591.30614
346,1.15,217.786,419.373,430.445,-65.76576577,273.5735736,477.4774775,180.3605407,-4509.013518,4959.91487
347,1.15333,217.567,420.284,432.035,-65.16516517,258.5585586,493.993994,-1379.974137,-52.65015784,-12671.94799
348,1.15666,217.35,421.145,433.68,-69.76047904,258.3832335,451.7964072,6680.548382,-8938.534432,3373.250263
349,1.16,217.117,422.008,435.189,-47.44744745,228.5285285,463.0630631,-10100.19028,13977.94191,6132.258385
350,1.16333,216.959,422.769,436.731,-81.08108108,275.0750751,483.4834835,8974.016904,-14902.69468,-4031.112085
351,1.16666,216.689,423.685,438.341,-51.19760479,225.4491018,470.0598802,-1394.685948,21151.7947,7525.5434
352,1.17,216.518,424.438,439.911,-55.85585586,296.0960961,495.1951952,-9108.207306,-13436.86028,-14789.56434
353,1.17333,216.332,425.424,441.56,-86.18618619,251.3513514,445.9459459,15721.87713,-6969.260894,15692.98705
354,1.17666,216.045,426.261,443.045,-33.83233533,228.1437126,498.2035928,-20889.60128,18007.358,-12678.96316
355,1.18,215.932,427.023,444.709,-103.6036036,288.2882883,455.8558559,22184.34651,-15060.10515,9468.928388
356,1.18333,215.587,427.983,446.227,-29.72972973,238.1381381,487.3873874,-18674.60599,3472.21041,-7451.212339
357,1.18666,215.488,428.776,447.85,-91.91616766,249.7005988,462.5748503,17449.86049,1573.160525,7608.723859
358,1.19,215.181,429.61,449.395,-33.63363363,254.954955,487.987988,-180.3605407,1082.163244,-541.0816222
359,1.19333,215.069,430.459,451.02,-34.23423423,258.5585586,486.1861862,-7611.59282,-11561.16466,-18419.18522
360,1.19666,214.955,431.32,452.639,-59.58083832,220.0598802,424.8502994,1924.456638,12695.3839,35177.25837
361,1.2,214.756,432.055,454.058,-53.15315315,262.4624625,542.3423423,-8657.305955,811.6224333,-29308.58787
362,1.20333,214.579,432.929,455.864,-81.98198198,265.1651652,444.7447447,19584.23871,-12106.5663,7062.681174
363,1.20666,214.306,433.812,457.345,-16.76646707,224.8502994,468.2634731,-21233.89839,9193.190465,7523.928245
364,1.21,214.25,434.563,458.909,-87.68768769,255.5555556,493.3933934,17675.33299,-3787.571355,-5140.275411
365,1.21333,213.958,435.414,460.552,-28.82882883,242.9429429,476.2762763,-3750.311243,5895.467675,-2136.516405
366,1.21666,213.862,436.223,462.138,-41.31736527,262.5748503,469.1616766,-5251.944188,-6327.367922,4018.23531
367,1.22,213.724,437.1,463.705,-58.85885886,241.4414414,482.5825826,2254.506759,-9649.288929,6763.520277
368,1.22333,213.528,437.904,465.312,-51.35135135,209.3093093,505.1051051,-4179.61253,20850.81251,-26168.47845
369,1.22666,213.357,438.601,466.994,-65.26946108,278.742515,417.9640719,18013.28023,-11527.62716,29416.80969
370,1.23,213.139,439.532,468.39,-5.105105105,240.2402402,516.2162162,-13346.68001,6763.520277,-6222.438655
371,1.23333,213.122,440.332,470.109,-49.54954955,262.7627628,495.4954955,763.83229,-10396.11117,-13392.58015
372,1.23666,212.957,441.207,471.759,-47.00598802,228.1437126,450.8982036,-581.7248278,3891.445679,10025.80263
373,1.24,212.8,441.969,473.265,-48.94894895,241.1411411,484.3843844,-7575.14271,-11452.89434,3066.129192
374,1.24333,212.637,442.772,474.878,-74.17417417,203.003003,494.5945946,9597.178772,16181.14851,-1883.255646
375,1.24666,212.39,443.448,476.525,-42.21556886,256.8862275,488.3233533,-2825.174488,-11547.27821,-10530.00004
376,1.25,212.249,444.306,478.156,-51.65165165,218.3183183,453.1531532,8747.486225,-1442.884326,13617.22082
377,1.25333,212.077,445.033,479.665,-22.52252252,213.5135135,498.4984985,-13646.11091,20307.57088,-4763.894282
378,1.25666,212.002,445.744,481.325,-67.96407186,281.1377246,482.6347305,8660.189466,-18628.38492,-4331.306099
379,1.26,211.775,446.683,482.937,-39.03903904,218.9189189,468.1681682,-8386.765144,-1983.965948,13436.86028
380,1.26333,211.645,447.412,484.496,-66.96696697,212.3123123,512.9129129,8781.506327,4574.353714,-20511.15149
381,1.26666,211.422,448.119,486.204,-37.7245509,227.5449102,444.6107784,-2101.854445,654.1375898,14515.66307
382,1.27,211.296,448.879,487.689,-44.74474474,229.7297297,493.0930931,8567.125684,3066.129192,1893.785678
383,1.27333,211.147,449.644,489.331,-16.21621622,239.9399399,499.3993994,-7358.062059,-5340.616011,-7102.371293
384,1.27666,211.093,450.443,490.994,-40.71856287,222.1556886,475.748503,-36.61016964,3526.420752,1147.028918
385,1.28,210.957,451.185,492.583,-40.84084084,233.9339339,479.5795796,5410.816222,-4058.112166,2344.687029
386,1.28333,210.821,451.964,494.18,-22.82282282,220.4204204,487.3873874,-18411.0852,4387.243153,1180.173538
387,1.28666,210.745,452.698,495.803,-84.13173653,235.0299401,491.3173653,15838.47464,-9229.26225,-2974.845475
388,1.29,210.464,453.483,497.444,-31.23123123,204.2042042,481.3813814,6853.700547,15511.0065,-450.9013518
389,1.29333,210.36,454.163,499.047,-8.408408408,255.8558559,479.8798799,-13389.07014,-10659.63196,-2859.038571
390,1.29666,210.332,455.015,500.645,-52.99401198,220.3592814,470.3592814,13528.80364,1456.869398,9144.197444
391,1.3,210.155,455.751,502.216,-7.807807808,225.2252252,500.9009009,-18486.95542,-3336.670003,-4959.91487
392,1.30333,210.129,456.501,503.884,-69.36936937,214.1141141,484.3843844,17145.3214,-3609.10082,-2503.447505
393,1.30666,209.898,457.214,505.497,-12.2754491,202.0958084,476.0479042,-9901.16654,6025.872407,5642.811588
394,1.31,209.857,457.889,507.087,-45.34534535,222.2222222,494.8948949,6763.520277,-1442.884326,1082.163244
395,1.31333,209.706,458.629,508.735,-22.82282282,217.4174174,498.4984985,-1777.68533,-5680.007029,-8000.663986
396,1.31666,209.63,459.353,510.395,-28.74251497,198.502994,471.8562874,-295.5732813,15373.31013,4110.568312
397,1.32,209.534,460.016,511.971,-29.72972973,249.8498498,485.5855856,3246.489733,-18577.13569,-721.4421629
398,1.32333,209.435,460.848,513.588,-18.91891892,187.987988,483.1831832,-12120.87634,10710.12211,-254.6107633
399,1.32666,209.372,461.474,515.197,-59.28143713,223.6526946,482.3353293,8937.726855,-5013.708893,5468.64409
400,1.33,209.174,462.221,516.808,-29.42942943,206.9069069,500.6006006,6222.438655,1713.425137,-9559.108658
401,1.33333,209.076,462.91,518.475,-8.708708709,212.6126126,468.7687688,-9702.479088,438.2113138,10907.2227
402,1.33666,209.047,463.618,520.036,-41.01796407,214.0718563,505.0898204,6796.301124,821.8444699,-10335.10473
403,1.34,208.91,464.333,521.723,-18.31831832,216.8168168,470.5705706,-9378.748117,-3426.850274,9288.567847
404,1.34333,208.849,465.055,523.29,-49.54954955,205.4054054,501.5015015,8586.025741,-3241.629718,-4317.042943
405,1.34666,208.684,465.739,524.96,-20.95808383,194.6107784,487.1257485,-8200.677999,11683.48958,-1989.601204
406,1.35,208.614,466.389,526.587,-48.34834835,233.6336336,480.4804805,12715.41812,-14969.92488,5771.537303
407,1.35333,208.453,467.167,528.187,-6.006006006,183.7837838,499.6996997,-4669.934,6488.119451,-9710.039111
408,1.35666,208.433,467.779,529.851,-21.55688623,205.3892216,467.3652695,-5953.459645,4410.448672,14536.12169
409,1.36,208.361,468.465,531.412,-41.44144144,220.1201201,515.9159159,9018.027036,-8927.846766,-14609.2038
410,1.36333,208.223,469.198,533.13,-11.41141141,190.3903904,467.2672673,-2417.317247,2436.217304,8391.085156
411,1.36666,208.185,469.832,534.686,-19.46107784,198.502994,495.2095808,-7569.96015,3774.885359,-2521.794626
412,1.37,208.12,470.495,536.34,-44.74474474,211.1111111,486.7867868,8927.846766,-14609.2038,2344.687029
413,1.37333,207.971,471.198,537.961,-15.01501502,162.4624625,494.5945946,-795.6923855,19993.82994,-1343.794029
414,1.37666,207.921,471.739,539.608,-17.66467066,229.0419162,490.1197605,5828.285168,-11122.76176,1339.770693
415,1.38,207.862,472.504,541.245,1.801801802,191.8918919,494.5945946,-8116.224332,2975.948922,-3066.129192
416,1.38333,207.868,473.143,542.892,-25.22522523,201.8018018,484.3843844,-1955.345862,3325.059969,2981.078937
417,1.38666,207.784,473.815,544.505,-31.73652695,212.8742515,494.3113772,6624.82555,-10058.37492,3771.116665
418,1.39,207.678,474.526,546.156,-9.60960961,179.2792793,506.9069069,-15330.64596,2975.948922,-7755.503251
419,1.39333,207.646,475.123,547.844,-60.66066066,189.1891892,481.0810811,21003.63297,5494.246472,4962.074876
420,1.39666,207.444,475.753,549.446,9.281437126,207.4850299,497.6047904,-6195.463634,-2960.309085,-6205.962138
421,1.4,207.475,476.446,551.108,-11.41141141,197.5975976,476.8768769,-4509.013518,-3517.030544,16412.80921
422,1.40333,207.437,477.104,552.696,-26.42642643,185.8858859,531.5315315,1102.683306,-2774.528318,-23135.28936
423,1.40666,207.349,477.723,554.466,-22.75449102,176.6467066,454.491018,1867.657036,2946.041886,15423.64911
424,1.41,207.273,478.313,555.984,-16.51651652,186.4864865,506.006006,-5410.816222,1803.605407,-4328.652977
425,1.41333,207.218,478.934,557.669,-34.53453453,192.4924925,491.5915916,7313.781927,-532.7115971,8998.586978
426,1.41666,207.103,479.575,559.306,-10.17964072,190.7185629,521.5568862,-8640.538419,-9179.192459,-12927.69696
427,1.42,207.069,480.212,561.048,-39.03903904,160.0600601,478.3783784,17585.15272,10010.01001,3787.571355
428,1.42333,206.939,480.745,562.641,19.51951952,193.3933934,490.990991,-10357.23105,5400.556191,-2149.746445
429,1.42666,207.004,481.389,564.276,-14.97005988,211.3772455,483.8323353,-5677.806603,-9610.16953,13382.09377
430,1.43,206.954,482.095,565.892,-33.93393393,179.2792793,528.5285285,6583.159736,-991.982974,-20290.56083
431,1.43333,206.841,482.692,567.652,-12.01201201,175.975976,460.960961,1179.633537,-3754.631256,16578.5897
432,1.43666,206.801,483.278,569.187,-8.083832335,163.4730539,516.1676647,-12235.06485,3114.017959,-9336.131642
433,1.44,206.774,483.824,570.911,-48.94894895,173.8738739,484.984985,21192.36353,7034.061088,5771.537303
434,1.44333,206.611,484.403,572.526,21.62162162,197.2972973,504.2042042,-18630.86586,-3054.519157,3952.271849
435,1.44666,206.683,485.06,574.205,-40.41916168,187.1257485,517.3652695,18395.26428,-9182.422768,-13830.56835
436,1.45,206.548,485.685,575.933,21.02102102,156.4564565,471.1711712,-15871.72758,15871.72758,7124.241358
437,1.45333,206.618,486.206,577.502,-31.83183183,209.3093093,494.8948949,3085.569251,-17720.69313,16368.25907
438,1.45666,206.512,486.903,579.15,-21.55688623,150.2994012,549.4011976,1329.272189,-943.7886379,-29446.15166
439,1.46,206.44,487.405,580.985,-17.11711712,147.1471471,451.0510511,-4779.554329,17675.33299,21462.90435
440,1.46333,206.383,487.895,582.487,-33.03303303,206.006006,522.5225225,3446.290332,-10974.4529,-6853.430547
441,1.46666,206.273,488.581,584.227,-21.55688623,169.4610778,499.7005988,6633.978092,-4073.419757,1348.384851
442,1.47,206.201,489.147,585.896,0.600600601,155.8558559,504.2042042,-10370.73109,-1533.064596,1713.425137
443,1.47333,206.203,489.666,587.575,-33.93393393,150.7507508,509.9099099,10639.9219,16497.85946,-5763.167278
444,1.47666,206.09,490.168,589.273,1.497005988,205.6886228,490.7185629,-7730.937219,-12492.41281,-8.344965144
445,1.48,206.095,490.855,590.912,-24.32432432,163.963964,490.6906907,-721.4421629,450.9013518,8927.846766
446,1.48333,206.014,491.401,592.546,-26.72672673,165.4654655,520.4204204,9644.428914,-8600.335784,-5053.33515
447,1.48666,205.925,491.952,594.279,5.389221557,136.8263473,503.5928144,-17977.20845,8394.765736,3240.000013
448,1.49,205.943,492.409,595.961,-54.65465465,164.8648649,514.4144144,18036.05407,7484.96244,-1082.163244
449,1.49333,205.761,492.958,597.674,5.405405405,189.7897898,510.8108108,-2612.257832,-11679.15501,-9720.029141
450,1.49666,205.779,493.59,599.375,-3.293413174,150.8982036,478.4431138,-11511.47562,5440.378885,16614.01801
451,1.5,205.768,494.094,600.973,-41.74174174,169.0690691,533.9339339,14158.30245,2615.22784,-11452.89434
452,1.50333,205.629,494.657,602.751,5.405405405,177.7777778,495.7957958,-8366.515083,-12657.36795,4319.47295
453,1.50666,205.647,495.249,604.402,-22.45508982,135.6287425,510.1796407,-2897.318057,-507.4277189,3695.473594
454,1.51,205.572,495.702,606.106,-32.13213213,133.9339339,522.5225225,-901.8027036,16683.35002,-10280.55082
455,1.51333,205.465,496.148,607.846,-35.13513514,189.4894895,488.2882883,2908.71872,-17433.14226,12777.78831
456,1.51666,205.348,496.779,609.472,-25.4491018,131.4371257,530.8383234,5551.555356,8300.010003,-9592.672022
457,1.52,205.263,497.218,611.245,-6.906906907,159.1591592,498.7987988,450.9013518,90.18027037,7484.96244
458,1.52333,205.24,497.748,612.906,-5.405405405,159.4594595,523.7237237,-7187.96155,4082.412239,-9731.639175
459,1.52666,205.222,498.279,614.65,-29.34131737,173.0538922,491.3173653,9144.466637,-13510.76775,3498.693932
460,1.53,205.124,498.857,616.291,1.201201201,127.9279279,503.003003,-4058.112166,8386.765144,15871.72758
461,1.53333,205.128,499.283,617.966,-12.31231231,155.8558559,555.8558559,-7451.48234,3905.83171,-29450.87829
462,1.53666,205.087,499.802,619.817,-37.1257485,168.8622754,457.7844311,10396.21141,-7670.368924,29812.25336
463,1.54,204.963,500.366,621.346,-2.402402402,143.2432432,557.3573574,-11362.71407,4689.374059,-20470.92137
464,1.54333,204.955,500.843,623.202,-40.24024024,158.8588589,489.1891892,8757.476255,-16506.49949,10169.58049
465,1.54666,204.821,501.372,624.831,-11.07784431,103.8922156,523.0538922,-1358.614163,21492.05392,-2676.58027
466,1.55,204.784,501.719,626.578,-15.61561562,175.6756757,514.1141141,-5410.816222,-90.18027035,-1262.523785
467,1.55333,204.732,502.304,628.29,-33.63363363,175.3753754,509.9099099,12797.49837,-14363.50306,-8.910026736
468,1.55666,204.62,502.888,629.988,8.982035928,127.5449102,509.8802395,-10871.06684,7667.138615,-1070.039885
469,1.56,204.65,503.314,631.691,-27.32732733,153.1531532,506.3063063,-1893.785678,-2885.768652,12625.23785
470,1.56333,204.559,503.824,633.377,-33.63363363,143.5435435,548.3483483,8481.805428,-2196.996587,-22700.85806
471,1.56666,204.447,504.302,635.203,-5.389221557,136.2275449,472.754491,-2612.243281,5966.650074,18317.19848
472,1.57,204.429,504.757,636.782,-14.11411411,156.1561562,533.9339339,-2164.326489,-12535.05758,-4959.91487
473,1.57333,204.382,505.277,638.56,-21.32132132,114.4144144,517.4174174,1008.183023,11855.19554,-6039.648107
474,1.57666,204.311,505.658,640.283,-17.96407186,153.8922156,497.3053892,-9726.460657,3824.685957,13933.66905
475,1.58,204.251,506.172,641.944,-50.45045045,166.6666667,543.8438438,15781.54731,-13166.31947,-11633.25488
476,1.58333,204.083,506.727,643.755,2.102102102,122.8228228,505.1051051,-3868.031596,3935.531799,-3331.269987
477,1.58666,204.09,507.136,645.437,-10.77844311,135.9281437,494.011976,-10529.19246,212.12363,21033.61923
478,1.59,204.054,507.59,647.087,-45.94594595,136.6366366,564.2642643,10460.91136,9829.649469,-27685.343
479,1.59333,203.901,508.045,648.966,-11.11111111,169.3693694,472.0720721,-5114.895334,-19662.80895,25739.44717
480,1.59666,203.864,508.609,650.538,-28.14371257,103.8922156,557.7844311,1053.619147,13040.48859,-19908.1257
481,1.6,203.77,508.956,652.401,-24.62462462,147.4474474,491.2912913,12174.3365,-2615.22784,10010.01001
482,1.60333,203.688,509.447,654.037,15.91591592,138.7387387,524.6246246,-24739.63417,3651.490947,-6765.410283
483,1.60666,203.741,509.909,655.784,-66.46706587,150.8982036,502.0958084,17023.1905,-10204.00802,13218.69397
484,1.61,203.519,510.413,657.461,-9.60960961,116.8168168,546.2462462,-5500.996492,-2344.687029,-17404.79218
485,1.61333,203.487,510.802,659.28,-27.92792793,109.009009,488.2882883,2632.507892,19412.5182,14306.26289
486,1.61666,203.394,511.165,660.906,-19.16167665,173.6526946,535.9281437,-5052.20341,-13869.87044,-4463.210387
487,1.62,203.33,511.745,662.696,-36.03603604,127.3273273,521.021021,7935.863792,541.0816222,-5230.455681
488,1.62333,203.21,512.169,664.431,-9.60960961,129.1291291,503.6036036,-7543.822616,-2993.228974,10156.62045
489,1.62666,203.178,512.599,666.108,-34.73053892,119.1616766,537.4251497,6532.223356,5321.934219,-9496.839519
490,1.63,203.062,512.997,667.903,-12.91291291,136.9369369,505.7057057,-10010.01001,-5861.717573,450.9013518
491,1.63333,203.019,513.453,669.587,-46.24624625,117.4174174,507.2072072,11370.27409,5199.135587,7995.533971
492,1.63666,202.865,513.844,671.276,-8.383233533,134.7305389,533.8323353,1431.026925,-6622.133626,-4465.094734
493,1.64,202.837,514.294,673.059,-3.603603604,112.6126126,518.9189189,-15961.90785,1533.064596,-1803.605407
494,1.64333,202.825,514.669,674.787,-56.75675676,117.7177177,512.9129129,13807.30139,15358.72605,3674.711017
495,1.64666,202.636,515.061,676.495,-10.77844311,168.8622754,525.1497006,-8730.987074,-27090.98715,-3843.529427
496,1.65,202.6,515.625,678.249,-39.93993994,78.37837838,512.3123123,6132.258385,14879.74461,5681.357033
497,1.65333,202.467,515.886,679.955,-19.51951952,127.9279279,531.2312312,-3039.399112,-5779.367327,-117.9903537
498,1.65666,202.402,516.312,681.724,-29.64071856,108.6826347,530.8383234,2400.927228,14033.80863,-9952.313101
499,1.66,202.303,516.675,683.497,-21.62162162,155.5555556,497.5975976,-901.8027036,-13076.1392,5771.537303
500,1.66333,202.231,517.193,685.154,-24.62462462,112.012012,516.8168168,5956.217857,4754.444254,8256.624753
501,1.66666,202.149,517.566,686.875,-4.790419162,127.8443114,544.3113772,-2611.704896,-5998.953165,-13176.96915
502,1.67,202.133,517.993,688.693,-13.51351351,107.8078078,500.3003003,-6312.618925,6222.438655,6042.078114
503,1.67333,202.088,518.352,690.359,-34.53453453,128.5285285,520.4204204,3267.819797,-6499.189485,2319.306953
504,1.67666,201.973,518.78,692.092,-23.65269461,106.8862275,528.1437126,-8113.190461,-6107.706904,1373.958131
505,1.68,201.894,519.137,693.856,-50.75075075,86.48648649,532.7327327,5771.537303,4869.734599,-901.8027036
506,1.68333,201.725,519.425,695.63,-31.53153153,102.7027027,529.7297297,5422.966258,5751.827244,-9287.487844
507,1.68666,201.62,519.767,697.394,-13.47305389,121.8562874,498.8023952,-7474.666032,-789.541379,13125.82258
508,1.69,201.575,520.174,699.06,-38.43843844,119.2192192,542.6426426,-4328.652977,5230.455681,-11543.07461
509,1.69333,201.447,520.571,700.867,-52.85285285,136.6366366,504.2042042,12455.13734,-13879.12161,11864.37557
510,1.69666,201.271,521.026,702.546,-11.37724551,90.41916168,543.7125749,-9630.628154,2868.514468,-14346.34103
511,1.7,201.233,521.328,704.362,-43.54354354,100,495.7957958,6222.438655,5861.717573,14519.02353
512,1.70333,201.088,521.661,706.013,-22.82282282,119.5195195,544.1441441,-7262.211772,-3254.319756,-14065.69217
513,1.70666,201.012,522.059,707.825,-47.00598802,108.6826347,497.3053892,3733.968111,-5926.27121,13394.20743
514,1.71,200.855,522.422,709.486,-34.53453453,88.88888889,542.042042,6673.340007,4328.652977,-6492.979466
515,1.71333,200.74,522.718,711.291,-12.31231231,103.3033033,520.4204204,-2686.238053,-362.6110871,-3614.770837
516,1.71666,200.699,523.062,713.024,-21.25748503,102.0958084,508.3832335,-198.9332012,9442.46265,9448.115691
517,1.72,200.628,523.403,714.722,-21.92192192,133.6336336,539.9399399,2975.948922,-19569.11867,-7755.503251
518,1.72333,200.555,523.848,716.52,-12.01201201,68.46846847,514.1141141,-9249.957731,11536.86459,616.6818488
519,1.72666,200.515,524.076,718.232,-42.81437126,106.8862275,516.1676647,-1836.699908,-4129.680974,6577.986068
520,1.73,200.372,524.433,719.956,-48.94894895,93.09309309,538.1381381,7935.863792,4238.472707,-4148.292437
521,1.73333,200.209,524.743,721.748,-22.52252252,107.2072072,524.3243243,-6723.020156,-14931.58476,-4966.934891
522,1.73666,200.134,525.1,723.494,-44.91017964,57.48502994,507.7844311,10389.2124,18303.46966,7379.641106
523,1.74,199.984,525.292,725.19,-10.21021021,118.6186186,532.4324324,-1713.425137,-13436.86028,721.4421629
524,1.74333,199.95,525.687,726.963,-15.91591592,73.87387387,534.8348348,-7807.883408,1641.874922,-10371.00109
525,1.74666,199.897,525.933,728.744,-41.91616766,79.34131737,500.2994012,-6870.867425,10411.01699,12048.24531
526,1.75,199.757,526.198,730.415,-64.86486486,114.1141141,540.5405405,12174.3365,-11813.61542,-4959.91487
527,1.75333,199.541,526.578,732.215,-24.32432432,74.77477477,524.024024,-10677.45201,1101.603303,2585.797752
528,1.75666,199.46,526.827,733.96,-59.88023952,78.44311377,532.6347305,7678.444697,2588.015962,-6534.107703
529,1.76,199.26,527.089,735.739,-34.23423423,87.08708709,510.8108108,5320.635951,-11272.5338,1623.244866
530,1.76333,199.146,527.379,737.44,-16.51651652,49.54954955,516.2162162,-16168.99847,22792.65833,4211.202625
531,1.76666,199.091,527.544,739.159,-70.35928144,125.4491018,530.239521,15221.4856,-21915.22441,3623.599217
532,1.77,198.856,527.963,740.93,-19.51951952,52.25225225,542.3423423,-9108.207306,6042.078114,-10641.2719
533,1.77333,198.791,528.137,742.736,-49.84984985,72.37237237,506.9069069,134.7304039,4430.443282,4938.854807
534,1.77666,198.625,528.378,744.424,-49.4011976,87.1257485,523.3532934,11104.45667,-7024.576299,2088.933209
535,1.78,198.46,528.669,746.172,-12.31231231,63.66366366,530.3303303,-5320.635951,4959.91487,-6222.438655
536,1.78333,198.419,528.881,747.938,-30.03003003,80.18018018,509.6096096,-5547.436631,4333.512992,12398.97717
537,1.78666,198.319,529.148,749.635,-48.50299401,94.61077844,550.8982036,8318.045896,-15918.96317,-12721.49556
538,1.79,198.157,529.464,751.475,-20.72072072,41.44144144,508.4084084,-1893.785678,5681.357033,11723.43515
539,1.79333,198.088,529.602,753.168,-27.02702703,60.36036036,547.4474474,-14181.52252,16039.66809,-13709.0211
540,1.79666,197.998,529.803,754.991,-74.25149701,113.7724551,501.7964072,17645.56338,-22015.63319,15556.09179
541,1.8,197.75,530.183,756.667,-15.31531532,40.24024024,553.7537538,-5771.537303,12354.69704,-19118.21732
542,1.80333,197.699,530.317,758.511,-34.53453453,81.38138138,490.0900901,-8330.604975,-9603.658792,25363.60604
543,1.80666,197.584,530.588,760.143,-62.2754491,49.4011976,574.5508982,9654.317087,314.1475586,-29513.44977
544,1.81,197.376,530.753,762.062,-30.03003003,50.45045045,475.975976,-2525.04757,-2705.408111,26152.2784
545,1.81333,197.276,530.921,763.647,-38.43843844,41.44144144,563.0630631,-6708.710113,16146.58841,-20196.60055
546,1.81666,197.148,531.059,765.522,-60.77844311,95.20958084,495.8083832,7857.457658,-14659.68102,17169.09279
547,1.82,196.945,531.377,767.178,-34.53453453,46.24624625,553.1531532,4689.374059,13617.22082,-9559.108658
548,1.82333,196.83,531.531,769.02,-18.91891892,91.59159159,521.3213213,-13649.35092,-17075.39119,1239.573716
549,1.82666,196.767,531.836,770.756,-64.37125749,34.73053892,525.4491018,15766.33107,-598.1455657,2270.638095
550,1.83,196.552,531.952,772.511,-11.71171171,32.73273273,533.033033,-11182.35352,9739.469199,1623.244866
551,1.83333,196.513,532.061,774.286,-48.94894895,65.16516517,538.4384384,403.6512101,3358.000067,-9834.779485
552,1.83666,196.35,532.278,776.079,-47.60479042,76.34730539,505.6886228,6520.648082,-10450.85747,13671.47563
553,1.84,196.191,532.533,777.768,-25.82582583,41.44144144,551.3513514,2795.588381,7124.241358,-9468.928388
554,1.84333,196.105,532.671,779.604,-16.51651652,65.16516517,519.8198198,-14910.2547,-9858.809557,5556.616659
555,1.84666,196.05,532.888,781.335,-66.16766467,32.33532934,538.3233533,7942.522464,-60.83748778,-2033.479569
556,1.85,195.829,532.996,783.133,-39.63963964,32.13213213,531.5315315,6943.880818,11903.79569,-4238.472707
557,1.85333,195.697,533.103,784.903,-16.51651652,71.77177177,517.4174174,-16798.37036,-3211.389628,4839.494509
558,1.85666,195.642,533.342,786.626,-72.45508982,61.07784431,533.5329341,12522.29317,-5159.88038,6953.240307
559,1.86,195.4,533.546,788.408,-30.63063063,43.84384384,556.7567568,-2074.146218,-13617.22082,-16502.98948
560,1.86333,195.298,533.692,790.262,-37.53753754,-1.501501502,501.8018018,-595.6217857,15196.18556,12585.81773
561,1.86666,195.173,533.687,791.933,-39.52095808,49.10179641,543.7125749,-3901.674991,-6339.481581,398.9431721
562,1.87,195.041,533.851,793.749,-52.55255255,27.92792793,545.045045,11452.89434,-4238.472707,-12174.3365
563,1.87333,194.866,533.944,795.564,-14.41441441,13.81381381,504.5045045,-10236.81069,20037.57007,20045.9401
564,1.87666,194.818,533.99,797.244,-48.50299401,80.53892216,571.257485,585.7627142,-13414.12767,-17828.07584
565,1.88,194.656,534.259,799.152,-46.54654655,35.73573574,511.7117117,-1262.523785,-8476.945414,6673.340007
566,1.88333,194.501,534.378,800.856,-50.75075075,7.507507508,533.9339339,1304.373911,10063.20017,-120.420361
567,1.88666,194.332,534.403,802.634,-46.40718563,41.01796407,533.5329341,1846.390835,-3289.800611,3266.919255
568,1.89,194.177,534.54,804.416,-40.24024024,30.03003003,544.4444444,7034.061088,-270.5408111,-12535.05758
569,1.89333,194.043,534.64,806.229,-16.81681682,29.12912913,502.7027027,-12482.40742,872.912617,18878.7266
570,1.89666,193.987,534.737,807.903,-58.38323353,32.03592814,565.5688623,1296.161521,3175.663024,-13337.67702
571,1.9,193.792,534.844,809.792,-54.05405405,42.64264264,521.021021,4148.292437,-11362.71407,6492.979466
572,1.90333,193.612,534.986,811.527,-40.24024024,4.804804805,542.6426426,9027.207064,5749.937238,-6062.328175
573,1.90666,193.478,535.002,813.334,-10.17964072,23.95209581,522.4550898,-9359.820576,-3574.875388,5954.267222
574,1.91,193.444,535.082,815.079,-41.44144144,12.01201201,542.3423423,-1172.343515,3697.391085,3787.571355
575,1.91333,193.306,535.122,816.885,-45.34534535,24.32432432,554.954955,1119.693357,-6135.768395,-17671.82298
576,1.91666,193.155,535.203,818.733,-41.61676647,3.892215569,496.1077844,-1565.892329,4678.833518,21934.60627
577,1.92,193.016,535.216,820.39,-46.84684685,19.51951952,569.3693694,-4418.833248,450.9013518,-19569.11867
578,1.92333,192.86,535.281,822.286,-61.56156156,21.02102102,504.2042042,11923.50575,-2626.297874,12853.38853
579,1.92666,192.655,535.351,823.965,-21.85628743,12.2754491,547.005988,-4694.985064,10800.26924,-9308.404823
580,1.93,192.582,535.392,825.792,-37.53753754,48.34834835,515.9159159,-8657.305955,-22094.16624,5050.09514
581,1.93333,192.457,535.553,827.51,-66.36636637,-25.22522523,532.7327327,12557.19765,19892.84964,1499.044494
582,1.93666,192.236,535.469,829.284,-24.5508982,41.01796407,537.7245509,-291.8045874,-14888.22538,-1045.004989
583,1.94,192.154,535.606,831.08,-25.52552553,-8.708708709,534.2342342,-8026.044062,14879.74461,-8747.486225
584,1.94333,192.069,535.577,832.859,-52.25225225,40.84084084,505.1051051,-2830.148485,-11635.14488,9076.347211
585,1.94666,191.895,535.713,834.541,-61.67664671,2.095808383,535.3293413,9205.304124,4497.397825,2459.341984
586,1.95,191.689,535.72,836.329,-30.93093093,17.11711712,543.5435435,-7575.14271,-6402.799196,-10190.37055
587,1.95333,191.586,535.777,838.139,-56.15615616,-4.204204204,509.6096096,2567.977699,6477.319419,16624.75984
588,1.95666,191.399,535.763,839.836,-47.60479042,17.36526946,564.9700599,3104.057839,-6278.105708,-24576.9991
589,1.96,191.24,535.821,841.723,-37.23723724,-3.603603604,482.8828829,-2795.588381,-6583.159736,16773.53029
590,1.96333,191.116,535.809,843.331,-46.54654655,-25.52552553,538.7387387,3008.889021,18184.82452,684.452052
591,1.96666,190.961,535.724,845.125,-36.52694611,35.02994012,541.0179641,-10822.07382,-7610.877398,-4998.095733
592,1.97,190.839,535.841,846.932,-72.67267267,9.60960961,524.3243243,17855.69353,-7304.601899,-901.8027036
593,1.97333,190.597,535.873,848.678,-13.21321321,-14.71471471,521.3213213,-21296.85385,-2594.167777,4746.074229
594,1.97666,190.553,535.824,850.414,-84.13173653,-23.35329341,537.1257485,16108.20545,15083.92828,-4192.402808
595,1.98,190.272,535.746,852.208,-30.33033033,27.02702703,523.1231231,-5140.275411,-12444.87731,-5320.635951
596,1.98333,190.171,535.836,853.95,-47.44744745,-14.41441441,505.4054054,9842.879509,-2234.7967,10334.82098
597,1.98666,190.013,535.788,855.633,-14.67065868,-21.85628743,539.8203593,-13769.46167,2407.926231,2912.931218
598,1.99,189.964,535.715,857.436,-60.66066066,-13.81381381,549.5495495,1082.163244,6583.159736,-11272.5338
599,1.99333,189.762,535.669,859.266,-57.05705706,8.108108108,512.012012,10121.25034,-546.7516392,6822.380453
600,1.99666,189.572,535.696,860.971,-23.35329341,6.28742515,534.7305389,-10450.58828,-10423.93823,-4644.107695
601,2,189.494,535.717,862.757,-58.25825826,-28.52852853,519.2192192,1352.704055,6042.078114,5140.275411
602,2.00333,189.3,535.622,864.486,-53.75375375,-8.408408408,536.3363363,-5705.927106,-531.9015947,-3359.350071
603,2.00666,189.121,535.594,866.272,-72.75449102,-10.17964072,525.1497006,16927.62719,-6033.140602,-4293.080775
604,2.01,188.878,535.56,868.026,-16.21621622,-30.33033033,510.8108108,-7665.322981,5951.897844,8567.125684
605,2.01333,188.824,535.459,869.727,-41.74174174,-10.51051051,539.3393393,-11470.98439,-2058.486171,-4800.614392
606,2.01666,188.685,535.424,871.523,-79.94011976,-17.36526946,523.3532934,15572.51252,-6758.883377,-2226.75973
607,2.02,188.418,535.366,873.271,-27.92792793,-39.93993994,515.9159159,-9378.748117,11993.97596,10190.37055
608,2.02333,188.325,535.233,874.989,-59.15915916,0,549.8498498,3739.511211,-2787.218356,-14790.10434
609,2.02666,188.128,535.233,876.82,-46.70658683,-9.281437126,500.5988024,-9932.123669,1699.950156,8991.56534
610,2.03,187.972,535.202,878.492,-79.87987988,-3.603603604,530.6306306,10370.73109,-7214.421629,-1533.064596
611,2.03333,187.706,535.19,880.259,-45.34534535,-27.62762763,525.5255255,-2386.807156,-2762.378282,1685.345053
612,2.03666,187.555,535.098,882.009,-53.29341317,-36.82634731,531.1377246,-1756.211373,5451.415774,297.7268207
613,2.04,187.377,534.975,883.783,-59.15915916,-18.61861862,532.1321321,-1533.064596,-9468.928388,-4509.013518
614,2.04333,187.18,534.913,885.555,-64.26426426,-50.15015015,517.1171171,9498.358476,1843.295526,9335.277987
615,2.04666,186.966,534.746,887.277,-32.63473054,-44.01197605,548.2035928,-4345.034913,10839.57133,-11914.72587
616,2.05,186.857,534.599,889.108,-47.14714715,-7.807807808,508.4084084,-8386.765144,-3517.030544,8296.584873
617,2.05333,186.7,534.573,890.801,-75.07507508,-19.51951952,536.036036,-741.6922236,-3129.309382,-3808.631418
618,2.05666,186.45,534.508,892.586,-77.54491018,-29.94011976,523.3532934,7033.190457,-3443.509485,-2586.400808
619,2.06,186.191,534.408,894.334,-54.05405405,-41.44144144,514.7147147,-1893.785678,10821.63244,13527.04055
620,2.06333,186.011,534.27,896.048,-60.36036036,-5.405405405,559.7597598,-2463.217385,-18426.74524,-17945.8738
621,2.06666,185.81,534.252,897.912,-68.56287425,-66.76646707,500,6142.163534,6323.599228,14026.00205
622,2.07,185.581,534.029,899.582,-48.04804805,-45.64564565,546.8468468,2615.22784,8206.404603,-11633.25488
623,2.07333,185.421,533.877,901.403,-39.33933934,-18.31831832,508.1081081,-8236.374693,-11222.31364,8534.185585
624,2.07666,185.29,533.816,903.095,-66.76646707,-55.68862275,536.5269461,-2577.517458,12177.72687,-2754.37688
625,2.08,185.067,533.63,904.887,-75.37537538,-15.01501502,527.3273273,1172.343515,-16683.35002,-5681.357033
626,2.08333,184.816,533.58,906.643,-71.47147147,-70.57057057,508.4084084,333.9910013,11751.78523,15636.82688
627,2.08666,184.578,533.345,908.336,-70.35928144,-31.43712575,560.4790419,-5367.966123,7524.197438,-7767.816581
628,2.09,184.343,533.24,910.208,-88.28828829,-6.306306306,534.5345345,5500.996492,-20380.7411,-721.4421629
629,2.09333,184.049,533.219,911.988,-69.96996997,-74.17417417,532.1321321,8334.654987,14811.97441,-1377.54413
630,2.09666,183.816,532.972,913.76,-42.21556886,-24.8502994,527.5449102,-4353.64907,-10721.66505,833.9581289
631,2.1,183.675,532.889,915.522,-56.75675676,-60.66066066,530.3303303,541.0816222,6853.700547,8567.125684
632,2.10333,183.486,532.687,917.288,-54.95495495,-37.83783784,558.8588589,-5884.667642,-3652.30095,-14618.38383
633,2.10666,183.303,532.561,919.149,-74.5508982,-50,510.1796407,3978.933216,-674.3270216,10169.013
634,2.11,183.054,532.394,920.853,-61.26126126,-52.25225225,544.1441441,-12264.51677,5500.996492,-6853.700547
635,2.11333,182.85,532.22,922.665,-102.1021021,-33.93393393,521.3213213,11420.49424,-10399.08118,6184.638542
636,2.11666,182.51,532.107,924.401,-64.07185629,-68.56287425,541.9161677,5157.188455,5153.150569,-3019.262225
637,2.12,182.296,531.878,926.211,-46.84684685,-51.35135135,531.8318318,-8837.666495,2074.146218,4238.472707
638,2.12333,182.14,531.707,927.982,-76.27627628,-44.44444444,545.9459459,-560.7916813,-9040.977105,6701.960092
639,2.12666,181.886,531.559,929.8,-78.14371257,-74.5508982,568.2634731,2357.318055,8923.998042,-12705.8824
640,2.13,181.625,531.31,931.698,-70.27027027,-44.74474474,525.8258258,-2254.506759,-9829.649469,2975.948922
641,2.13333,181.391,531.161,933.449,-77.77777778,-77.47747748,535.7357357,-9280.737824,7352.392042,-32.13009632
642,2.13666,181.132,530.903,935.233,-108.6826347,-52.99401198,535.6287425,12489.72089,3548.763723,841.2263244
643,2.14,180.769,530.726,937.022,-66.96696697,-41.14114114,538.4384384,6763.520277,-10731.45217,1623.244867
644,2.14333,180.546,530.589,938.815,-44.44444444,-76.87687688,543.8438438,-10839.1825,10588.62174,-8490.985456
645,2.14666,180.398,530.333,940.626,-80.53892216,-41.61676647,515.5688623,-3129.361927,-12894.58629,9544.486578
646,2.15,180.129,530.194,942.348,-90.99099099,-84.68468468,547.4474474,4869.734599,12895.77866,-2164.326489
647,2.15333,179.826,529.912,944.171,-74.77477477,-41.74174174,540.2402402,-1281.423842,-14887.57463,233.5507002
648,2.15666,179.577,529.773,945.97,-79.04191617,-91.31736527,541.0179641,-10500.65807,12954.8854,-4548.544385
649,2.16,179.313,529.468,947.777,-114.1141141,-48.04804805,525.8258258,14338.66299,11452.89434,4238.472707
650,2.16333,178.933,529.308,949.528,-66.36636637,-9.90990991,539.9399399,-5245.035725,-20490.63143,-3812.141429
651,2.16666,178.712,529.275,951.326,-83.83233533,-78.14371257,527.245509,-1963.489539,1997.676977,14140.40883
652,2.17,178.432,529.014,953.087,-90.39039039,-71.47147147,574.4744745,7484.96244,1.02506E-08,-18757.49623
653,2.17333,178.131,528.776,955,-65.46546547,-71.47147147,512.012012,-10011.09001,154.1704622,14734.48417
654,2.17666,177.913,528.538,956.705,-98.80239521,-70.95808383,561.0778443,2338.743778,2453.688943,-1923.110676
655,2.18,177.583,528.301,958.579,-90.99099099,-62.76276276,554.6546547,7394.78217,-12444.87731,-14068.12218
656,2.18333,177.28,528.092,960.426,-66.36636637,-104.2042042,507.8078078,-10639.6519,5758.037263,17705.30308
657,2.18666,177.059,527.745,962.117,-101.7964072,-85.02994012,566.7664671,5752.642097,6666.819568,-12347.58729
658,2.19,176.719,527.461,964.01,-82.58258258,-62.76276276,525.5255255,6132.258385,-15330.64596,7124.241358
659,2.19333,176.444,527.252,965.76,-62.16216216,-113.8138138,549.2492492,-5068.995197,9003.446992,225.4506759
660,2.19666,176.237,526.873,967.589,-79.04191617,-83.83233533,550,-6005.14459,2082.472591,-6338.674003
661,2.2,175.973,526.593,969.426,-99.0990991,-76.87687688,528.8288288,-360.7210814,6492.979466,8296.584873
662,2.20333,175.643,526.337,971.187,-100.3003003,-55.25525526,556.4564565,5484.796443,-11818.47543,-8322.504951
663,2.20666,175.309,526.153,973.04,-82.03592814,-94.61077844,528.742515,-2591.246272,11333.53943,4791.086759
664,2.21,175.035,525.837,974.806,-90.69069069,-56.75675676,544.7447447,1803.605407,-17585.15272,5050.09514
665,2.21333,174.733,525.648,976.62,-84.68468468,-115.3153153,561.5615616,-7746.053223,16017.79802,-7248.17173
666,2.21666,174.451,525.264,978.49,-110.4790419,-61.9760479,537.4251497,14016.58032,-685.0947186,-3742.582268
667,2.22,174.082,525.057,980.285,-63.66366366,-64.26426426,524.9249249,-4509.013518,-10010.01001,6222.438655
668,2.22333,173.87,524.843,982.033,-78.67867868,-97.5975976,545.6456456,-10448.76133,3414.430236,3195.729581
669,2.22666,173.608,524.518,983.85,-113.4730539,-86.22754491,556.2874251,6101.78467,821.5752775,-1028.315059
670,2.23,173.229,524.23,985.708,-93.09309309,-83.48348348,552.8528529,9739.469199,-5771.537303,-10551.09163
671,2.23333,172.919,523.952,987.549,-60.66066066,-102.7027027,517.7177177,-12622.80784,10162.29047,6637.429899
672,2.23666,172.717,523.61,989.273,-102.6946108,-68.86227545,539.8203593,12585.01501,-13638.36496,9116.739817
673,2.24,172.374,523.38,991.076,-60.66066066,-114.4144144,570.2702703,-10551.09163,14789.56434,-6943.880818
674,2.24333,172.172,522.999,992.975,-95.7957958,-65.16516517,547.1471471,-363.4210895,-19182.20751,-1391.04417
675,2.24666,171.853,522.782,994.797,-97.00598802,-129.0419162,542.5149701,4048.654054,8605.274212,-681.0568322
676,2.25,171.529,522.351,996.609,-83.48348348,-100.3003003,540.2402402,-5140.275411,5050.09514,2074.146218
677,2.25333,171.251,522.017,998.408,-100.6006006,-83.48348348,547.1471471,-538.9216157,-7567.312687,-8583.865734
678,2.25666,170.916,521.739,1000.23,-102.3952096,-108.6826347,518.5628743,13304.56635,-2165.65305,17639.10276
679,2.26,170.574,521.376,1001.962,-57.95795796,-115.9159159,577.4774775,-7484.96244,2525.04757,-9919.82974
680,2.26333,170.381,520.99,1003.885,-82.88288288,-107.5075075,544.4444444,-5859.557567,7379.392123,-3636.370902
681,2.26666,170.105,520.632,1005.698,-102.3952096,-82.93413174,532.3353293,-2249.910278,-1962.681962,8660.458659
682,2.27,169.763,520.355,1007.476,-109.9099099,-89.48948949,561.2612613,8116.224332,901.8027036,-6853.700547
683,2.27333,169.397,520.057,1009.345,-82.88288288,-86.48648649,538.4384384,-375.0311243,-8283.894835,8417.005234
684,2.27666,169.121,519.769,1011.138,-84.13173653,-114.0718563,566.4670659,4959.332024,-1181.485548,-9290.907315
685,2.28,168.84,519.388,1013.03,-67.56756757,-118.018018,535.4354354,-14158.30245,9288.567847,6312.618925
686,2.28333,168.615,518.995,1014.813,-114.7147147,-87.08708709,556.4564565,3339.910013,-8373.265103,-859.9525782
687,2.28666,168.233,518.705,1016.666,-103.5928144,-114.9700599,553.5928144,7459.322064,-7386.101724,-6964.815581
688,2.29,167.887,518.321,1018.515,-78.67867868,-139.6396396,530.3303303,-2975.948922,18667.31596,9108.207306
689,2.29333,167.625,517.856,1020.281,-88.58858859,-77.47747748,560.6606607,3765.97129,-12877.41861,-3471.130406
690,2.29666,167.33,517.598,1022.148,-76.04790419,-120.3592814,549.1017964,-10408.05587,1779.900306,2921.276183
691,2.3,167.076,517.196,1023.982,-110.8108108,-114.4144144,558.8588589,23446.87029,-3787.571355,-7304.601899
692,2.30333,166.707,516.815,1025.843,-32.73273273,-127.027027,534.5345345,-25954.63781,3081.249238,5992.937967
693,2.30666,166.598,516.392,1027.623,-119.1616766,-116.7664671,554.491018,2769.990041,-1723.369897,-850.1096744
694,2.31,166.2,516.002,1029.475,-109.9099099,-122.5225225,551.6516517,8567.125684,1983.965948,-1533.064596
695,2.31333,165.834,515.594,1031.312,-81.38138138,-115.9159159,546.5465465,612.6318367,-11494.20446,-41.85012546
696,2.31666,165.563,515.208,1033.132,-79.34131737,-154.1916168,546.4071856,4064.536407,15505.7528,3548.225338
697,2.32,165.298,514.693,1034.957,-65.76576577,-102.4024024,558.2582583,-4148.292437,450.9013518,-6132.258385
698,2.32333,165.079,514.352,1036.816,-79.57957958,-100.9009009,537.8378378,-16382.02911,-9799.409379,5900.057688
699,2.32666,164.814,514.016,1038.607,-134.1317365,-133.5329341,557.4850299,24424.90538,11658.18549,-13434.85549
700,2.33,164.366,513.57,1040.469,-52.55255255,-94.59459459,512.6126126,-5951.897844,-9468.928388,16863.71056
701,2.33333,164.191,513.255,1042.176,-72.37237237,-126.1261261,568.7687688,-10724.16215,-5730.767181,-2399.497194
702,2.33666,163.95,512.835,1044.07,-108.0838323,-145.2095808,560.7784431,13479.27224,3915.403804,-10914.40682
703,2.34,163.589,512.35,1045.943,-63.06306306,-132.1321321,524.3243243,-14248.48272,4869.734599,8747.486225
704,2.34333,163.379,511.91,1047.689,-110.5105105,-115.9159159,553.4534535,15833.65747,-3492.19047,-4183.932543
705,2.34666,163.011,511.524,1049.532,-57.78443114,-127.5449102,539.5209581,-8233.788667,5279.940201,5969.61119
706,2.35,162.818,511.098,1051.334,-85.28528529,-109.9099099,559.4594595,3066.129192,-15060.10515,-5681.357033
707,2.35333,162.534,510.732,1053.197,-75.07507508,-160.0600601,540.5405405,-1101.333302,13540.54059,11741.7952
708,2.35666,162.284,510.199,1054.997,-78.74251497,-114.9700599,579.6407186,-6184.695937,-11432.06385,-20427.93627
709,2.36,162.021,509.815,1056.933,-99.3993994,-153.1531532,511.4114114,5230.455681,5771.537303,6763.520277
710,2.36333,161.69,509.305,1058.636,-81.98198198,-133.9339339,533.9339339,6727.070168,5425.126265,17861.63355
711,2.36666,161.417,508.859,1060.414,-59.58083832,-115.8682635,593.4131737,-11112.53245,-11792.51251,-16639.3221
712,2.37,161.218,508.472,1062.396,-96.6966967,-155.2552553,537.8378378,13256.49974,15871.72758,-180.3605407
713,2.37333,160.896,507.955,1064.187,-52.55255255,-102.4024024,537.2372372,-11910.81571,-17889.98363,8777.726316
714,2.37666,160.721,507.614,1065.976,-92.21556886,-161.9760479,566.4670659,456.5503508,9205.034932,-18641.57535
715,2.38,160.413,507.073,1067.868,-90.69069069,-131.2312312,504.2042042,5500.996492,-3156.309463,15781.54731
716,2.38333,160.111,506.636,1069.547,-72.37237237,-141.7417417,556.7567568,-2901.9687,-8414.035225,578.3417339
717,2.38666,159.87,506.164,1071.401,-82.03592814,-169.760479,558.6826347,4062.113675,18099.15261,2750.069802
718,2.39,159.596,505.597,1073.267,-68.46846847,-109.3093093,567.8678679,901.8027036,-11993.97596,-14158.30245
719,2.39333,159.368,505.233,1075.158,-65.46546547,-149.2492492,520.7207207,-9741.359205,-1664.014989,8612.755821
720,2.39666,159.15,504.736,1076.892,-97.90419162,-154.7904192,549.4011976,13398.51451,-3555.762726,-2562.981067
721,2.4,158.823,504.219,1078.727,-53.15315315,-166.6666667,540.8408408,-8026.044062,15240.46569,-2705.408111
722,2.40333,158.646,503.664,1080.528,-79.87987988,-115.9159159,531.8318318,-467.641402,-11494.20446,8243.124713
723,2.40666,158.38,503.278,1082.299,-81.43712575,-154.1916168,559.2814371,5501.216373,-1936.839489,-755.892326
724,2.41,158.108,502.763,1084.167,-63.06306306,-160.6606607,556.7567568,-1352.704055,7575.14271,-3967.931896
725,2.41333,157.898,502.228,1086.021,-67.56756757,-135.4354354,543.5435435,6084.738242,-5812.307425,-668.5220042
726,2.41666,157.673,501.777,1087.831,-47.30538922,-154.7904192,541.3173653,-10741.85448,-1397.916257,10826.3809
727,2.42,157.515,501.26,1089.639,-83.18318318,-159.4594595,577.4774775,-3877.751625,5771.537303,-23176.32948
728,2.42333,157.238,500.729,1091.562,-96.0960961,-140.2402402,500.3003003,14651.86393,-4818.974447,12677.07801
729,2.42666,156.918,500.262,1093.228,-47.30538922,-156.2874251,542.5149701,-5706.879385,3545.802606,11816.47064
730,2.43,156.76,499.74,1095.04,-66.36636637,-144.4444444,581.981982,8567.125684,-9919.82974,-19208.39759
731,2.43333,156.539,499.259,1096.978,-37.83783784,-177.4774775,518.018018,-15790.18734,16343.419,8884.916637
732,2.43666,156.413,498.668,1098.703,-90.41916168,-123.0538922,547.6047904,4683.948174,-13147.62717,1391.455639
733,2.44,156.111,498.257,1100.532,-74.77477477,-166.966967,552.2522523,11903.79569,-4959.91487,3787.571355
734,2.44333,155.862,497.701,1102.371,-35.13513514,-183.4834835,564.8648649,-15432.97627,12662.49796,-17321.09193
735,2.44666,155.745,497.09,1104.252,-86.52694611,-141.3173653,507.1856287,14397.75679,-1295.892328,7738.7438
736,2.45,155.456,496.618,1105.946,-38.43843844,-145.6456456,533.033033,-7304.601899,-5861.717573,6583.159736
737,2.45333,155.328,496.133,1107.721,-62.76276276,-165.1651652,554.954955,1854.63556,-3268.089798,-5983.487938
738,2.45666,155.119,495.583,1109.569,-56.58682635,-176.0479042,535.0299401,2196.879371,4247.318063,13248.30514
739,2.46,154.93,494.995,1111.356,-49.24924925,-161.8618619,579.2792793,-11993.97596,-6943.880818,-11272.5338
740,2.46333,154.766,494.456,1113.285,-89.18918919,-184.984985,541.7417417,15185.11552,16170.34848,-6061.518172
741,2.46666,154.469,493.84,1115.089,-38.62275449,-131.1377246,521.5568862,-2911.854448,-14863.19049,4065.343984
742,2.47,154.34,493.402,1116.831,-48.34834835,-180.7807808,535.1351351,-3246.489733,-2164.326489,5591.176762
743,2.47333,154.179,492.8,1118.613,-59.15915916,-187.987988,553.7537538,3649.600942,11767.44528,-8230.164674
744,2.47666,153.982,492.174,1120.457,-47.00598802,-148.8023952,526.3473054,-7145.174505,-17576.38093,10992.74182
745,2.48,153.825,491.677,1122.215,-70.87087087,-207.5075075,563.0630631,14158.30245,17224.43164,4599.193788
746,2.48333,153.589,490.986,1124.09,-23.72372372,-150.1501502,578.3783784,-8969.696891,-6788.090351,-19131.44736
747,2.48666,153.51,490.486,1126.016,-53.59281437,-172.754491,514.6706587,2918.853451,-9326.171523,6666.550376
748,2.49,153.331,489.909,1127.735,-43.84384384,-203.9039039,536.9369369,-270.5408111,9108.207306,5140.275411
749,2.49333,153.185,489.23,1129.523,-44.74474474,-173.5735736,554.0540541,759.512277,-12701.10808,-2655.997963
750,2.49666,153.036,488.652,1131.368,-42.21556886,-215.8682635,545.2095808,1130.877372,16619.13267,-9220.109708
751,2.5,152.895,487.931,1133.189,-38.43843844,-160.3603604,514.4144144,-3517.030544,180.3605407,13076.1392
752,2.50333,152.767,487.397,1134.902,-50.15015015,-159.7597598,557.957958,-2472.397412,-13252.98973,4892.954669
753,2.50666,152.6,486.865,1136.76,-58.38323353,-203.8922156,574.251497,11995.4836,9437.078801,-6766.420765
754,2.51,152.405,486.184,1138.678,-18.31831832,-172.3723724,551.6516517,-16502.98948,-13346.68001,-8747.486225
755,2.51333,152.344,485.61,1140.515,-73.27327327,-216.8168168,522.5225225,18587.39573,13142.0194,9690.059051
756,2.51666,152.1,484.888,1142.255,-11.37724551,-173.0538922,554.7904192,-5584.666024,2092.163518,-5165.53342
757,2.52,152.062,484.31,1144.108,-30.03003003,-166.0660661,537.5375375,-15240.46569,-3787.571355,-3246.489733
758,2.52333,151.962,483.757,1145.898,-80.78078078,-178.6786787,526.7267267,21201.54356,-5144.055422,20025.96004
759,2.52666,151.693,483.162,1147.652,-10.17964072,-195.8083832,593.4131737,-19609.5913,-5750.488557,-17718.24533
760,2.53,151.659,482.508,1149.634,-75.67567568,-215.015015,534.2342342,12535.05758,20110.20029,-2254.506759
761,2.53333,151.407,481.792,1151.413,-33.93393393,-148.048048,526.7267267,4615.933839,-7059.711165,10675.292
762,2.53666,151.294,481.299,1153.167,-18.56287425,-171.5568862,562.2754491,-7119.601225,-16517.91632,-3989.970106
763,2.54,151.232,480.726,1155.045,-42.34234234,-226.7267267,548.9489489,7034.061088,13076.1392,4328.652977
764,2.54333,151.091,479.971,1156.873,-18.91891892,-183.1831832,563.3633634,-8254.734748,-18176.99449,-18398.66516
765,2.54666,151.028,479.361,1158.749,-46.40718563,-243.7125749,502.0958084,9668.584286,18392.30316,17714.20745
766,2.55,150.873,478.547,1160.426,-14.11411411,-182.2822823,561.2612613,-8386.765144,-7034.061088,-6492.979466
767,2.55333,150.826,477.94,1162.295,-42.04204204,-205.7057057,539.6396396,-1400.764199,5219.925649,-6689.000054
768,2.55666,150.686,477.255,1164.092,-46.70658683,-188.3233533,517.3652695,16411.58531,-5563.938208,26808.87349
769,2.56,150.53,476.626,1165.82,8.108108108,-206.9069069,606.9069069,-26332.63895,-811.6224333,-24529.03354
770,2.56333,150.557,475.937,1167.841,-79.57957958,-209.6096096,525.2252252,20031.63005,10438.23129,-1191.513572
771,2.56666,150.292,475.239,1169.59,-12.8742515,-174.8502994,521.257485,1247.168499,-13104.28719,9010.139617
772,2.57,150.249,474.655,1171.331,-8.708708709,-218.6186186,551.3513514,-15871.72758,1713.425137,721.4421629
773,2.57333,150.22,473.927,1173.167,-61.56156156,-212.9129129,553.7537538,19116.32731,4866.764591,-1217.163649
774,2.57666,150.015,473.218,1175.011,2.095808383,-196.7065868,549.7005988,-11057.07881,3599.371899,-5979.302118
775,2.58,150.022,472.561,1176.847,-34.83483483,-184.6846847,529.7297297,1713.425137,-8296.584873,10100.19028
776,2.58333,149.906,471.946,1178.611,-29.12912913,-212.3123123,563.3633634,-4739.054208,-5653.276949,122.8503683
777,2.58666,149.809,471.239,1180.487,-44.91017964,-231.1377246,563.7724551,10658.94321,-27.99601207,-15227.40784
778,2.59,149.659,470.467,1182.37,-9.309309309,-231.2312312,512.9129129,-360.7210814,17134.25137,14248.48272
779,2.59333,149.628,469.697,1184.078,-10.51051051,-174.1741742,560.3603604,-2418.12725,-12161.10646,-1762.565284
780,2.59666,149.593,469.117,1185.944,-18.56287425,-214.6706587,554.491018,2141.156539,-4418.793637,-13077.90633
781,2.6,149.531,468.4,1187.796,-11.41141141,-229.4294294,510.8108108,-8296.584873,811.6224332,19388.75813
782,2.60333,149.493,467.636,1189.497,-39.03903904,-226.7267267,575.3753754,934.2028007,-425.5212757,-14813.05441
783,2.60666,149.363,466.881,1191.413,-35.92814371,-228.1437126,526.0479042,4373.300117,16158.54443,4968.484566
784,2.61,149.243,466.119,1193.17,-21.32132132,-174.1741742,542.6426426,-9468.928388,-24979.93489,3246.489733
785,2.61333,149.172,465.539,1194.977,-52.85285285,-257.3573574,553.4534535,15871.72758,20191.47053,-10747.38222
786,2.61666,148.996,464.682,1196.82,0,-190.1197605,517.6646707,-9170.847494,-19411.73487,8377.537421
787,2.62,148.996,464.047,1198.549,-30.63063063,-254.954955,545.6456456,1262.523785,15240.46569,3517.030544
788,2.62333,148.894,463.198,1200.366,-26.42642643,-204.2042042,557.3573574,8834.966487,-6559.669666,-7514.122527
789,2.62666,148.806,462.518,1202.222,2.994011976,-226.0479042,532.3353293,-7999.322066,-3260.189445,8750.368928
790,2.63,148.816,461.763,1204,-23.72372372,-236.9369369,561.5615616,9919.82974,4689.374059,-2074.146218
791,2.63333,148.737,460.974,1205.87,9.309309309,-221.3213213,554.6546547,-16012.39801,3166.029492,-8410.795216
792,2.63666,148.768,460.237,1207.717,-44.01197605,-210.7784431,526.6467066,8681.72486,-9.690927257,4519.471603
793,2.64,148.621,459.533,1209.476,-15.01501502,-210.8108108,541.7417417,-5591.176762,-11092.17325,-6132.258384
794,2.64333,148.571,458.831,1211.28,-33.63363363,-247.7477477,521.3213213,24485.83341,19283.72781,14006.83199
795,2.64666,148.459,458.006,1213.016,47.90419162,-183.5329341,567.9640719,-26480.45873,-8526.670024,-10368.48459
796,2.65,148.619,457.393,1214.913,-40.54054054,-212.012012,533.3333333,-3246.489733,-19208.39759,-3066.129192
797,2.65333,148.484,456.687,1216.689,-51.35135135,-275.975976,523.1231231,18657.59594,10407.9912,-4875.944618
798,2.65666,148.313,455.768,1218.431,10.77844311,-241.3173653,506.8862275,-7902.412793,-306.8793631,21404.83558
799,2.66,148.349,454.962,1220.124,-15.61561562,-242.3423423,578.3783784,4418.833248,12084.15623,-4779.554329
800,2.66333,148.297,454.155,1222.05,-0.900900901,-202.1021021,562.4624625,-2516.677545,-4403.713202,-17588.66273
801,2.66666,148.294,453.482,1223.923,-9.281437126,-216.7664671,503.8922156,4487.168512,-9815.294157,16636.89937
802,2.67,148.263,452.758,1225.606,5.705705706,-249.5495495,559.4594595,-9108.207306,11452.89434,811.6224332
803,2.67333,148.282,451.927,1227.469,-24.62462462,-211.4114114,562.1621622,-2225.616672,-6013.728029,-19476.50839
804,2.67666,148.2,451.223,1229.341,-32.03592814,-231.4371257,497.3053892,20201.00706,-4973.33003,16990.61821
805,2.68,148.093,450.45,1231.002,35.43543544,-248.048048,554.0540541,3787.571355,6763.520277,901.8027036
806,2.68333,148.211,449.624,1232.847,48.04804805,-225.5255255,557.0570571,-44548.78356,-19667.39896,-20730.66215
807,2.68666,148.371,448.873,1234.702,-100.2994012,-291.0179641,488.0239521,38661.14671,31746.40092,16083.17055
808,2.69,148.036,447.901,1236.332,28.82882883,-184.984985,541.7417417,-26873.72057,-18667.31596,5500.996492
809,2.69333,148.132,447.285,1238.136,-60.66066066,-247.1471471,560.0600601,17856.77353,-6071.508202,-1312.743936
810,2.69666,147.93,446.462,1240.001,-1.19760479,-267.3652695,555.6886228,6832.103716,22057.35801,-9300.598242
811,2.7,147.926,445.569,1241.857,21.62162162,-193.6936937,524.6246246,-15150.28542,-18036.05407,-2705.408111
812,2.70333,147.998,444.924,1243.604,-28.82882883,-253.7537538,515.6156156,12703.26808,-1210.413629,9786.179339
813,2.70666,147.902,444.079,1245.321,13.47305389,-257.7844311,548.2035928,191.9341982,1566.430714,-3642.981071
814,2.71,147.947,443.218,1247.152,14.11411411,-252.5525526,536.036036,2254.506759,8927.846766,7755.503251
815,2.71333,147.994,442.377,1248.937,21.62162162,-222.8228228,561.8618619,-21148.3534,-8700.776085,-24061.66214
816,2.71666,148.066,441.635,1250.808,-48.80239521,-251.7964072,481.7365269,4091.994034,223.1605193,14549.04293
817,2.72,147.903,440.794,1252.417,-35.13513514,-251.0510511,530.3303303,19298.57786,5500.996492,4238.472707
818,2.72333,147.786,439.958,1254.183,29.12912913,-232.7327327,544.4444444,-20795.46234,2726.738175,-4805.204406
819,2.72666,147.883,439.183,1255.996,-40.11976048,-223.6526946,528.4431138,10843.07083,-7663.639113,1554.047863
820,2.73,147.749,438.436,1257.761,-3.903903904,-249.2492492,533.6336336,-7034.061088,-13436.86028,-450.9013518
821,2.73333,147.736,437.606,1259.538,-27.32732733,-293.993994,532.1321321,36707.96005,27686.96301,6894.200669
822,2.73666,147.645,436.627,1261.31,94.91017964,-201.7964072,555.0898204,-32642.00412,-6924.70591,-10020.41878
823,2.74,147.962,435.953,1263.164,-14.11411411,-224.9249249,521.6216216,-4509.013518,-18847.67651,-450.9013518
824,2.74333,147.915,435.204,1264.901,-29.12912913,-287.6876877,520.1201201,13422.82024,17701.25307,4027.872076
825,2.74666,147.818,434.246,1266.633,15.56886228,-228.742515,533.5329341,-21384.64615,-4341.535411,6144.047881
826,2.75,147.87,433.482,1268.415,-55.85585586,-243.2432432,554.0540541,33997.96193,90.18027036,-22184.34651
827,2.75333,147.684,432.672,1270.26,57.35735736,-242.9429429,480.1801802,-7963.673875,-6704.660101,16651.21992
828,2.75666,147.875,431.863,1271.859,30.83832335,-265.2694611,535.6287425,-13009.26227,-3745.005,6145.932228
829,2.76,147.978,430.977,1273.648,-12.61261261,-277.7777778,556.1561562,26873.72057,26152.2784,-10370.73109
830,2.76333,147.936,430.052,1275.5,76.87687688,-190.6906907,521.6216216,-60578.73162,-27251.1817,7712.843123
831,2.76666,148.192,429.417,1277.237,-124.8502994,-281.4371257,547.3053892,46101.62531,22763.98813,14877.72688
832,2.77,147.775,428.477,1279.065,29.12912913,-205.4054054,596.996997,-12264.51677,-16412.80921,-24979.93489
833,2.77333,147.872,427.793,1281.053,-11.71171171,-260.0600601,513.8138138,16104.46828,13001.07898,3673.901014
834,2.77666,147.833,426.927,1282.764,41.91616766,-216.7664671,526.0479042,-17135.17454,-29595.55346,6496.959149
835,2.78,147.973,426.203,1284.521,-15.31531532,-315.6156156,547.7477477,10010.01001,22184.34651,-4148.292437
836,2.78333,147.922,425.152,1286.345,18.01801802,-241.7417417,533.9339339,10053.75014,13703.89108,1677.78503
837,2.78666,147.982,424.347,1288.123,51.49700599,-196.1077844,539.5209581,-43290.44883,-24631.91436,-15608.8535
838,2.79,148.154,423.692,1289.925,-93.09309309,-278.3783784,487.3873874,34088.1422,5410.816222,21102.18326
839,2.79333,147.844,422.765,1291.548,20.42042042,-260.3603604,557.6576577,10231.41067,8056.284153,9928.199765
840,2.79666,147.912,421.898,1293.405,54.49101796,-233.5329341,590.7185629,-27013.99811,-10010.18947,-28060.34907
841,2.8,148.094,421.118,1295.378,-35.73573574,-266.966967,496.996997,22454.88732,2615.22784,3517.030544
842,2.80333,147.975,420.229,1297.033,39.03903904,-258.2582583,508.7087087,12282.60682,1131.303392,15546.64661
843,2.80666,148.105,419.369,1298.727,79.94011976,-254.491018,560.4790419,-43894.24743,5435.533421,-16309.29219
844,2.81,148.372,418.519,1300.599,-66.66666667,-236.3363363,506.006006,32284.53679,3066.129192,9018.027036
845,2.81333,148.15,417.732,1302.284,40.84084084,-226.1261261,536.036036,-32134.68634,-28208.33457,-18553.91562
846,2.81666,148.286,416.979,1304.069,-66.16766467,-320.0598802,474.251497,21429.0629,22819.17257,16340.51851
847,2.82,148.065,415.91,1305.653,5.405405405,-243.8438438,528.8288288,13527.04055,-8747.486225,-1172.343515
848,2.82333,148.083,415.098,1307.414,50.45045045,-272.972973,524.9249249,-18207.23459,11574.1247,9508.078505
849,2.82666,148.251,414.189,1309.162,-10.17964072,-234.4311377,556.5868263,4036.809587,-120.8673983,-17121.98412
850,2.83,148.217,413.406,1311.021,3.303303303,-234.8348348,499.3993994,3877.751625,-1803.605407,11092.17325
851,2.83333,148.228,412.624,1312.684,16.21621622,-240.8408408,536.3363363,2592.817773,-13629.64086,-11541.1846
852,2.83666,148.282,411.822,1314.47,24.8502994,-286.2275449,497.9041916,4248.12564,1810.588243,6022.103713
853,2.84,148.365,410.866,1316.133,39.03903904,-280.1801802,518.018018,-6312.618925,8567.125684,721.4421629
854,2.84333,148.495,409.933,1317.858,18.01801802,-251.6516517,520.4204204,-17278.9718,-3999.521991,2678.948031
855,2.84666,148.555,409.095,1319.591,-39.52095808,-264.9700599,529.3413174,3291.146573,-7700.787668,-27036.61028
856,2.85,148.423,408.21,1321.359,-28.52852853,-290.6906907,439.039039,33276.51976,32825.61841,1172.343515
857,2.85333,148.328,407.242,1322.821,82.28228228,-181.3813814,442.9429429,-3041.019117,-17099.69126,13358.02005
858,2.85666,148.602,406.638,1324.296,72.15568862,-238.3233533,487.4251497,-33022.10382,-16847.67704,-14576.76975
859,2.86,148.843,405.842,1325.924,-38.13813814,-294.5945946,438.7387387,23176.32948,-1533.064596,270.5408111
860,2.86333,148.716,404.861,1327.385,39.03903904,-299.6996997,439.6396396,-3002.139,25174.60547,22621.74782
861,2.86666,148.846,403.863,1328.849,29.04191617,-215.8682635,514.9700599,-25688.22543,-14040.26925,-35501.09685
862,2.87,148.943,403.142,1330.569,-56.75675676,-262.7627628,396.3963964,31382.73409,4328.652977,13707.40109
863,2.87333,148.754,402.267,1331.889,47.74774775,-248.3483483,442.042042,-9843.14951,-6609.889816,-19997.87995
864,2.87666,148.913,401.44,1333.361,14.97005988,-270.3592814,375.4491018,-2863.669004,-9413.928253,19938.00606
865,2.88,148.963,400.537,1334.615,5.405405405,-301.8018018,442.042042,2344.687029,14879.74461,-8386.765144
866,2.88333,148.981,399.532,1336.087,13.21321321,-252.2522523,414.1141141,-18803.12637,4182.85254,-2440.267316
867,2.88666,149.025,398.692,1337.466,-49.4011976,-238.3233533,405.988024,31154.44678,5270.249273,-9345.284185
868,2.89,148.86,397.896,1338.822,54.65465465,-220.7207207,374.7747748,-6943.880818,-24709.39408,-5500.996492
869,2.89333,149.042,397.161,1340.07,31.53153153,-303.003003,356.4564565,-33744.70117,3958.751868,21887.34562
870,2.89666,149.147,396.152,1341.257,-80.83832335,-289.8203593,429.3413174,58638.72406,20598.60427,-39084.5864
871,2.9,148.877,395.184,1342.691,115.015015,-221.021021,298.7987988,-39048.05707,-12354.69704,11092.17325
872,2.90333,149.26,394.448,1343.686,-15.01501502,-262.1621622,335.7357357,-2863.628585,-11003.07299,15252.61573
873,2.90666,149.21,393.575,1344.804,-24.5508982,-298.8023952,386.5269461,24972.98116,28682.45276,-45416.79978
874,2.91,149.128,392.577,1346.095,58.85885886,-203.003003,234.8348348,-8116.224332,-23446.87029,35440.84625
875,2.91333,149.324,391.901,1346.877,31.83183183,-281.0810811,352.8528529,-30328.38092,6726.260165,132.3003966
876,2.91666,149.43,390.965,1348.052,-69.16167665,-258.6826347,353.2934132,34373.44979,2464.725832,-42209.91044
877,2.92,149.199,390.101,1349.232,45.64564565,-250.4504505,212.3123123,-10190.37055,-631.2618925,17855.69353
878,2.92333,149.351,389.267,1349.939,11.71171171,-252.5525526,271.7717718,-1269.273805,-15147.58541,7667.752988
879,2.92666,149.39,388.426,1350.844,7.48502994,-302.994012,297.3053892,3693.050862,20406.93926,-29133.35007
880,2.93,149.415,387.414,1351.837,19.81981982,-234.8348348,200,-15060.10515,-3066.129192,24078.13219
881,2.93333,149.481,386.632,1352.503,-30.33033033,-245.045045,280.1801802,21695.64504,-4994.474973,-33518.71049
882,2.93666,149.38,385.816,1353.436,41.91616766,-261.6766467,168.5628743,-10571.72487,5069.431725,14627.10873
883,2.94,149.52,384.942,1353.999,6.606606607,-244.7447447,217.4174174,13346.68001,-10641.2719,6943.880818
884,2.94333,149.542,384.127,1354.723,51.05105105,-280.1801802,240.5405405,-27828.17343,13918.27173,-22783.74831
885,2.94666,149.712,383.194,1355.524,-41.61676647,-233.8323353,164.6706587,14528.04592,-659.7906308,1137.068798
886,2.95,149.573,382.413,1356.074,6.906906907,-236.036036,168.4684685,7214.421629,-15060.10515,7755.503251
887,2.95333,149.596,381.627,1356.635,30.93093093,-286.1861862,194.2942943,-11985.87593,2954.618858,-10694.19206
888,2.95666,149.699,380.674,1357.282,-8.982035928,-276.3473054,158.6826347,10151.78469,9911.395852,-23054.17756
889,2.96,149.669,379.751,1357.812,24.92492492,-243.2432432,81.68168168,-13617.22082,-8116.224332,28226.42462
890,2.96333,149.752,378.941,1358.084,-20.42042042,-270.2702703,175.6756757,23934.49176,13909.3617,-27041.12107
891,2.96666,149.684,378.041,1358.669,59.28143713,-223.9520958,85.62874251,-30246.46074,-12519.06286,19048.05591
892,2.97,149.882,377.293,1358.955,-41.74174174,-265.7657658,149.2492492,22184.34651,4418.833248,-46713.38005
893,2.97333,149.743,376.408,1359.452,32.13213213,-251.0510511,-6.306306306,-5783.147338,-10203.87059,38217.53458
894,2.97666,149.85,375.572,1359.431,12.8742515,-285.0299401,120.9580838,7833.768725,19074.43677,-32528.67411
895,2.98,149.893,374.62,1359.835,39.03903904,-221.3213213,12.31231231,-15511.0065,-16683.35002,31563.09463
896,2.98333,150.023,373.883,1359.876,-12.61261261,-276.8768769,117.4174174,4956.404859,11487.72444,-53242.53962
897,2.98666,149.981,372.961,1360.267,3.892215569,-238.6227545,-59.88023952,10972.55239,-4979.790648,25660.49861
898,2.99,149.994,372.164,1360.067,40.54054054,-255.2552553,25.82582583,2885.768652,-3787.571355,-17404.79218
899,2.99333,150.129,371.314,1360.153,50.15015015,-267.8678679,-32.13213213,-24500.68345,9681.419025,18910.04669
900,2.99666,150.296,370.422,1360.046,-31.43712575,-235.6287425,30.83832335,19931.81464,-14327.76676,-5007.248275
901,3,150.191,369.635,1360.149,35.13513514,-283.4834835,14.11411411,-7304.601899,10460.91136,-28046.06408
902,3.00333,150.308,368.691,1360.196,10.81081081,-248.6486486,-79.27927928,-5584.156741,-6969.260894,11399.97418
903,3.00666,150.344,367.863,1359.932,-7.784431138,-271.8562874,-41.31736527,-3873.140594,9106.241313,-6960.23931
904,3.01,150.318,366.955,1359.794,-20.72072072,-241.4414414,-64.56456456,6853.700547,-3967.931896,4689.374059
905,3.01333,150.249,366.151,1359.579,2.102102102,-254.6546547,-48.94894895,25352.80601,4185.012547,-26029.96804
906,3.01666,150.256,365.303,1359.416,86.52694611,-240.7185629,-135.6287425,-30671.51558,-7948.71389,15432.53246
907,3.02,150.545,364.499,1358.963,-15.91591592,-267.2672673,-84.08408408,8296.584873,-180.3605407,-28947.86679
908,3.02333,150.492,363.609,1358.683,11.71171171,-267.8678679,-180.4804805,3316.149942,5095.995278,12929.52876
909,3.02666,150.531,362.717,1358.082,22.75449102,-250.8982036,-137.4251497,-6542.991053,6607.597235,-3719.970105
910,3.03,150.607,361.879,1357.623,0.900900901,-228.8288288,-149.8498498,4328.652977,-9559.108658,-8837.666495
911,3.03333,150.61,361.117,1357.124,15.31531532,-260.6606607,-179.2792793,-6037.758101,6528.079571,15266.11577
912,3.03666,150.661,360.249,1356.527,-4.790419162,-238.9221557,-128.4431138,27238.5046,-9745.304127,-30954.70601
913,3.04,150.645,359.451,1356.098,86.18618619,-271.4714715,-231.8318318,-43737.43112,11092.17325,19659.29894
914,3.04333,150.932,358.547,1355.326,-59.45945946,-234.5345345,-166.3663664,29813.75938,-7161.771471,-41388.96408
915,3.04666,150.734,357.766,1354.772,39.82035928,-258.3832335,-304.1916168,-8235.942206,4173.290146,18248.01602
916,3.05,150.867,356.903,1353.756,12.31231231,-244.4444444,-243.2432432,-6943.880818,-1623.244866,1713.425137
917,3.05333,150.908,356.089,1352.946,-10.81081081,-249.8498498,-237.5375375,14395.36316,-8676.476012,-16060.18815
918,3.05666,150.872,355.257,1352.155,37.1257485,-278.742515,-291.0179641,-19027.59728,21957.21843,26082.05394
919,3.06,150.996,354.326,1351.183,-26.42642643,-205.4054054,-203.9039039,33547.06057,-16502.98948,-38687.33598
920,3.06333,150.908,353.642,1350.504,85.28528529,-260.3603604,-332.7327327,-31904.91565,503.8215105,-10130.43037
921,3.06666,151.192,352.775,1349.396,-20.95808383,-258.6826347,-366.4670659,7623.529442,6600.598232,19900.31912
922,3.07,151.122,351.911,1348.172,4.504504505,-236.6366366,-300,2705.408111,3787.571355,-17855.69353
923,3.07333,151.137,351.123,1347.173,13.51351351,-224.024024,-359.4594595,1786.055355,-14723.68414,9224.307654
924,3.07666,151.182,350.377,1345.976,19.46107784,-273.0538922,-328.742515,-1600.887344,23490.80767,-34641.29625
925,3.08,151.247,349.465,1344.878,14.11411411,-194.5945946,-444.4444444,2074.146218,-18396.77515,21733.44516
926,3.08333,151.294,348.817,1343.398,21.02102102,-255.8558559,-372.0720721,-378.5411349,3646.630933,-2812.328431
927,3.08666,151.364,347.965,1342.159,19.76047904,-243.7125749,-381.4371257,9458.345003,-2197.148563,-12840.47862
928,3.09,151.43,347.151,1340.885,51.35135135,-251.0510511,-424.3243243,-22184.34651,4779.554329,811.6224332
929,3.09333,151.601,346.315,1339.472,-22.52252252,-235.1351351,-421.6216216,12967.32888,-3744.641226,-19580.9987
930,3.09666,151.526,345.532,1338.068,20.65868263,-247.6047904,-486.8263473,-6904.516478,13263.9183,3518.344979
931,3.1,151.595,344.705,1336.442,-2.402402402,-203.3033033,-475.0750751,6492.979466,-28136.24435,811.6224333
932,3.10333,151.587,344.028,1334.86,19.21921922,-296.996997,-472.3723724,2230.476687,23194.14954,-1013.85304
933,3.10666,151.651,343.039,1333.287,26.64670659,-219.760479,-475.748503,-7168.863438,251.9641087,-5372.811587
934,3.11,151.74,342.305,1331.698,2.702702703,-218.9189189,-493.6936937,-3066.129192,-12985.95893,-5591.176762
935,3.11333,151.749,341.576,1330.054,-7.507507508,-262.1621622,-512.3123123,12684.09803,8687.276044,-11047.89312
936,3.11666,151.724,340.703,1328.348,34.73053892,-233.2335329,-549.1017964,-8779.980095,-3896.02195,10295.53344
937,3.12,151.84,339.924,1326.514,5.405405405,-246.2462462,-514.7147147,9018.027036,5681.357033,-30661.29192
938,3.12333,151.858,339.104,1324.8,35.43543544,-227.3273273,-616.8168168,-11989.92595,-8157.264455,11793.36536
939,3.12666,151.976,338.347,1322.746,-4.491017964,-254.491018,-577.5449102,3502.462626,-2926.121647,-4565.234315
940,3.13,151.961,337.497,1320.817,7.207207207,-264.2642643,-592.7927928,2074.146218,19298.57786,-11723.43515
941,3.13333,151.985,336.617,1318.843,14.11411411,-200,-631.8318318,5292.015865,-15194.83555,478.1714336
942,3.13666,152.032,335.951,1316.739,31.73652695,-250.5988024,-630.239521,-6175.274202,9484.995053,-5961.266225
943,3.14,152.138,335.114,1314.634,11.11111111,-218.9189189,-650.1501502,5861.717573,-5050.09514,8386.765143
944,3.14333,152.175,334.385,1312.469,30.63063063,-235.7357357,-622.2222222,12649.80792,3718.451148,-14006.02199
945,3.14666,152.277,333.6,1310.397,72.75449102,-223.3532934,-668.8622754,-24839.73091,-3347.676982,-10761.23633
946,3.15,152.52,332.854,1308.163,-10.21021021,-234.5345345,-704.8048048,5861.717573,-4689.374059,-4148.292437
947,3.15333,152.486,332.073,1305.816,9.309309309,-250.1501502,-718.6186186,-2435.947303,7237.911699,2714.048137
948,3.15666,152.517,331.24,1303.423,1.19760479,-226.0479042,-709.5808383,4946.141595,2943.619154,-15293.35998
949,3.16,152.521,330.485,1301.053,17.71771772,-216.2162162,-760.6606607,1623.244866,-10731.45217,-180.3605407
950,3.16333,152.58,329.765,1298.52,23.12312312,-251.951952,-761.2612613,-1099.713297,13533.25057,684.452052
951,3.16666,152.657,328.926,1295.985,19.46107784,-206.8862275,-758.9820359,826.6899335,-3063.14059,-4009.082768
952,3.17,152.722,328.235,1293.45,22.22222222,-217.1171171,-772.3723724,8116.224332,-7214.421629,3246.489733
953,3.17333,152.796,327.512,1290.878,49.24924925,-241.1411411,-761.5615616,-21263.10375,1295.733885,-19365.26806
954,3.17666,152.96,326.709,1288.342,-21.55688623,-236.8263473,-826.0479042,21019.62122,1405.453645,-4249.20241
955,3.18,152.888,325.918,1285.583,48.64864865,-232.1321321,-840.2402402,-8206.404603,2164.326489,2434.8673
956,3.18333,153.05,325.145,1282.785,21.32132132,-224.9249249,-832.1321321,-3975.221918,4607.833814,2906.018712
957,3.18666,153.121,324.396,1280.014,8.083832335,-209.5808383,-822.4550898,20057.25831,-5583.05087,-4515.702909
958,3.19,153.148,323.696,1277.267,75.07507508,-228.2282282,-837.5375375,-23897.77165,-12535.05758,-22815.6084
959,3.19333,153.398,322.936,1274.478,-4.504504505,-269.96997,-913.5135135,-1704.245109,29193.83752,17274.92179
960,3.19666,153.383,322.037,1271.436,-10.17964072,-172.754491,-855.988024,16534.33705,-17328.18551,-20729.70098
961,3.2,153.349,321.46,1268.577,45.04504505,-230.6306306,-925.2252252,-5500.996492,-2074.146218,13166.31947
962,3.20333,153.499,320.692,1265.496,26.72672673,-237.5375375,-881.3813814,-3170.889506,5518.276544,-19617.17881
963,3.20666,153.588,319.901,1262.561,16.16766467,-219.1616766,-946.7065868,6488.075799,-5951.306105,6341.63512
964,3.21,153.642,319.169,1259.399,37.83783784,-239.039039,-925.5255255,-9739.469199,14879.74461,541.0816221
965,3.21333,153.768,318.373,1256.317,5.405405405,-189.4894895,-923.7237237,11773.3853,-18441.05529,-15802.87738
966,3.21666,153.786,317.742,1253.241,44.61077844,-250.8982036,-976.3473054,-1038.813563,13710.50853,2269.02294
967,3.22,153.935,316.904,1249.98,41.14114114,-205.1051051,-968.7687688,-16593.16975,-4689.374059,721.4421629
968,3.22333,154.072,316.221,1246.754,-14.11411411,-220.7207207,-966.3663664,3519.190551,9818.849437,-120.1503602
969,3.22666,154.025,315.486,1243.536,-2.395209581,-188.0239521,-966.7664671,19238.64414,-19949.31214,-28381.76482
970,3.23,154.017,314.858,1240.307,61.86186186,-254.6546547,-1061.561562,-3697.391085,8837.666495,29218.4076
971,3.23333,154.223,314.01,1236.772,49.54954955,-225.2252252,-964.2642643,-16947.68081,4967.744893,-20441.76128
972,3.23666,154.388,313.26,1233.561,-6.886227545,-208.6826347,-1032.335329,6287.527443,4307.886358,-1467.637095
973,3.24,154.365,312.563,1230.113,14.11411411,-194.2942943,-1037.237237,12985.95893,-15150.28542,-1713.425137
974,3.24333,154.412,311.916,1226.659,57.35735736,-244.7447447,-1042.942943,-13358.29005,9031.257076,1746.905237
975,3.24666,154.603,311.101,1223.186,12.8742515,-214.6706587,-1037.125749,6934.66603,1335.463614,-7945.483581
976,3.25,154.646,310.384,1219.722,36.03603604,-210.2102102,-1063.663664,-5320.635951,2074.146218,-2164.326489
977,3.25333,154.766,309.684,1216.18,18.31831832,-203.3033033,-1070.870871,5108.415315,-3773.261312,-3712.51113
978,3.25666,154.827,309.007,1212.614,35.32934132,-215.8682635,-1083.233533,-10038.18548,-1722.56232,1813.280167
979,3.26,154.945,308.286,1208.996,1.801801802,-221.6216216,-1077.177177,10190.37055,6042.078114,-3517.030544
980,3.26333,154.951,307.548,1205.409,35.73573574,-201.5015015,-1088.888889,4193.652573,-5213.44563,-6393.619168
981,3.26666,155.07,306.877,1201.783,49.7005988,-218.8622754,-1110.179641,-15240.05988,7805.234328,-4145.024942
982,3.27,155.236,306.146,1198.075,-1.201201201,-192.7927928,-1124.024024,11723.43515,-9288.567847,13166.31947
983,3.27333,155.232,305.504,1194.332,37.83783784,-223.7237237,-1080.18018,1134.813402,5775.587315,-19798.07935
984,3.27666,155.358,304.759,1190.735,41.61676647,-204.491018,-1146.107784,-951.5952182,-6028.025946,14973.55938
985,3.28,155.497,304.076,1186.907,38.43843844,-224.6246246,-1096.096096,-2975.948922,19208.39759,-34539.04355
986,3.28333,155.625,303.328,1183.257,28.52852853,-160.6606607,-1211.111111,6807.530409,-16668.76997,26263.78874
987,3.28666,155.72,302.793,1179.224,51.19760479,-216.1676647,-1123.652695,-16407.54742,-5858.703912,-2628.664018
988,3.29,155.891,302.071,1175.471,-3.603603604,-235.7357357,-1132.432432,16502.98948,12444.87731,-9829.649469
989,3.29333,155.879,301.286,1171.7,51.35135135,-194.2942943,-1165.165165,-8048.184128,4670.204001,11477.19441
990,3.29666,156.05,300.639,1167.82,24.5508982,-178.742515,-1126.946108,-4473.439699,-8072.811597,-26367.9363
991,3.3,156.132,300.042,1164.056,9.60960961,-205.7057057,-1215.015015,14248.48272,-8296.584873,10280.55082
992,3.30333,156.164,299.357,1160.01,57.05705706,-233.3333333,-1180.780781,-5805.557405,4345.663028,7804.913399
993,3.30666,156.354,298.58,1156.078,37.7245509,-218.8622754,-1154.790419,-13362.71192,10772.27322,-14704.63615
994,3.31,156.48,297.849,1152.221,-6.906906907,-182.8828829,-1203.903904,18036.05407,5320.635951,16683.35002
995,3.31333,156.457,297.24,1148.212,53.15315315,-165.1651652,-1148.348348,-317.5209519,-27723.68312,-13532.98057
996,3.31666,156.634,296.69,1144.388,52.09580838,-257.4850299,-1193.413174,-15687.45769,18559.74085,-1252.82154
997,3.32,156.808,295.83,1140.402,-0.3003003,-195.4954955,-1197.597598,26963.90084,-450.9013518,-5500.996492
998,3.32333,156.807,295.179,1136.414,89.48948949,-196.996997,-1215.915916,-27503.09245,10067.25018,3520.810555
999,3.32666,157.105,294.523,1132.365,-2.095808383,-163.4730539,-1204.191617,17620.52849,-14712.44273,8717.527452
1000,3.33,157.098,293.977,1128.343,56.75675676,-212.6126126,-1175.075075,-4779.554329,2885.768652,-17044.0711
1001,3.33333,157.287,293.269,1124.43,40.84084084,-203.003003,-1231.831832,-10646.13192,-8179.134521,10997.67297
1002,3.33666,157.423,292.593,1120.328,5.389221557,-230.239521,-1195.209581,13221.65509,29193.64917,-11504.20742
1003,3.34,157.441,291.824,1116.336,49.54954955,-132.7327327,-1233.633634,631.2618925,-21553.08462,7935.863792
1004,3.34333,157.606,291.382,1112.228,51.65165165,-204.5045045,-1207.207207,-4721.774156,993.0629772,-10872.6626
1005,3.34666,157.778,290.701,1108.208,35.92814371,-201.1976048,-1243.413174,1650.687943,5933.001021,7243.698932
1006,3.35,157.898,290.029,1104.055,41.44144144,-181.3813814,-1219.219219,-5771.537303,-7034.061088,-721.4421629
1007,3.35333,158.036,289.425,1099.995,22.22222222,-204.8048048,-1221.621622,10949.07283,13940.41179,-12208.3566
1008,3.35666,158.11,288.743,1095.927,58.68263473,-158.3832335,-1262.275449,-5341.854458,-7515.044895,123.828515
1009,3.36,158.306,288.214,1091.711,40.84084084,-183.4834835,-1261.861862,-2885.768652,-7034.061088,2885.768652
1010,3.36333,158.442,287.603,1087.509,31.23123123,-206.9069069,-1252.252252,15076.8452,9177.057513,10206.8406
1011,3.36666,158.546,286.914,1083.339,81.43712575,-176.3473054,-1218.263473,-25371.38594,-7261.465632,-17099.37195
1012,3.37,158.818,286.325,1079.27,-3.303303303,-200.6006006,-1275.375375,22635.24786,-1262.523785,-3607.210814
1013,3.37333,158.807,285.657,1075.023,72.07207207,-204.8048048,-1287.387387,-14989.90494,26258.11872,20308.38088
1014,3.37666,159.047,284.975,1070.736,22.15568862,-117.3652695,-1219.760479,13596.37094,-28786.89942,-15572.24333
1015,3.38,159.121,284.583,1066.662,67.56756757,-213.5135135,-1271.771772,-17945.8738,12444.87731,8657.305955
1016,3.38333,159.346,283.872,1062.427,7.807807808,-172.0720721,-1242.942943,18514.49551,-5959.187866,-11559.81466
1017,3.38666,159.372,283.299,1058.288,69.46107784,-191.9161677,-1281.437126,-2724.765714,12145.15458,2713.998017
1018,3.39,159.604,282.658,1054.008,60.36036036,-151.3513514,-1272.372372,-11182.35352,-10641.2719,5500.996492
1019,3.39333,159.805,282.154,1049.771,23.12312312,-186.7867868,-1254.054054,15263.95576,19948.1998,6701.960093
1020,3.39666,159.882,281.532,1045.595,73.95209581,-120.3592814,-1231.736527,-10542.92128,-33195.19455,-18999.60127
1021,3.4,160.129,281.13,1041.481,38.73873874,-231.2312312,-1295.195195,4328.652977,25611.19678,19028.03705
1022,3.40333,160.258,280.36,1037.168,53.15315315,-145.9459459,-1231.831832,-9398.458177,-9219.44764,-11389.98415
1023,3.40666,160.435,279.874,1033.066,21.85628743,-176.6467066,-1269.760479,11348.34501,380.6380873,-422.362913
1024,3.41,160.508,279.284,1028.825,59.75975976,-175.3753754,-1271.171171,-2074.146218,19749.47921,13617.22082
1025,3.41333,160.707,278.7,1024.592,52.85285285,-109.6096096,-1225.825826,9572.878699,-36315.10887,-24971.83487
1026,3.41666,160.883,278.335,1020.51,84.73053892,-230.5389222,-1308.982036,-19344.43677,29373.20052,5476.45067
1027,3.42,161.166,277.565,1016.138,20.12012012,-132.4324324,-1290.690691,16052.08812,-11452.89434,10731.45217
1028,3.42333,161.233,277.124,1011.84,73.57357357,-170.5705706,-1254.954955,-6000.227989,872.6426162,-10290.27085
1029,3.42666,161.478,276.556,1007.661,53.59281437,-167.6646707,-1289.221557,4633.609191,4075.034912,16103.62918
1030,3.43,161.657,275.996,1003.355,69.06906907,-154.0540541,-1235.435435,-1172.343515,-1262.523785,-26783.5403
1031,3.43333,161.887,275.483,999.241,65.16516517,-158.2582583,-1324.624625,-7970.693896,7245.201721,15486.70643
1032,3.43666,162.104,274.956,994.83,38.62275449,-134.1317365,-1273.053892,6328.444691,-16214.53646,24.22731815
1033,3.44,162.233,274.508,990.578,59.75975976,-188.2882883,-1272.972973,-2254.506759,11903.79569,-7034.061088
1034,3.44333,162.432,273.881,986.339,52.25225225,-148.6486486,-1296.396396,16226.77865,-405.8112166,15191.59554
1035,3.44666,162.606,273.386,982.022,106.2874251,-150,-1245.808383,-18515.86249,9125.892359,-8223.02097
1036,3.45,162.961,272.885,977.861,44.44444444,-119.5195195,-1273.273273,15871.72758,-4689.374059,-11092.17325
1037,3.45333,163.109,272.487,973.621,97.2972973,-135.1351351,-1310.21021,-14832.76447,-14533.87357,17092.13124
1038,3.45666,163.433,272.037,969.258,47.90419162,-183.5329341,-1253.293413,5167.956152,20694.16758,-11736.25129
1039,3.46,163.593,271.424,965.072,65.16516517,-114.4144144,-1292.492492,-360.7210814,-12174.3365,-2434.8673
1040,3.46333,163.81,271.043,960.768,63.96396396,-154.954955,-1300.600601,-2215.356642,7601.87279,7822.733453
1041,3.46666,164.023,270.527,956.437,56.58682635,-129.6407186,-1274.550898,-308.7637101,-25291.43579,-12025.09476
1042,3.47,164.212,270.094,952.18,55.55555556,-214.1141141,-1314.714715,11813.61542,47344.64194,17585.15272
1043,3.47333,164.397,269.381,947.802,94.89489489,-56.45645646,-1256.156156,-10245.18072,-27821.42341,-22337.16697
1044,3.47666,164.713,269.193,943.619,60.77844311,-149.1017964,-1330.538922,9225.493556,2743.070799,19752.80167
1045,3.48,164.916,268.695,939.175,91.59159159,-139.9399399,-1264.564565,-11903.79569,1983.965948,-3697.391085
1046,3.48333,165.221,268.229,934.964,51.95195195,-133.3333333,-1276.876877,6606.649807,2277.726829,-9011.817017
1047,3.48666,165.394,267.785,930.712,73.95209581,-125.748503,-1306.886228,-203.24028,8428.414789,10423.39984
1048,3.49,165.641,267.365,926.347,73.27327327,-97.5975976,-1272.072072,7124.241358,-19118.21732,-8567.125684
1049,3.49333,165.885,267.04,922.111,96.996997,-161.2612613,-1300.600601,-8538.775599,13811.35141,13936.63178
1050,3.49666,166.208,266.503,917.78,68.56287425,-115.2694611,-1254.191617,511.1964128,13652.63216,-20458.35502
1051,3.5,166.437,266.118,913.591,70.27027027,-69.66966967,-1322.522523,8567.125684,-19569.11867,2705.408111
1052,3.50333,166.671,265.886,909.187,98.7987988,-134.8348348,-1313.513514,-6562.369674,11809.56541,16465.72936
1053,3.50666,167,265.437,904.813,76.94610778,-95.50898204,-1258.682635,-7753.010998,-18427.56737,-17405.44374
1054,3.51,167.257,265.118,900.609,51.05105105,-157.0570571,-1316.816817,10280.55082,29308.58787,-450.9013518
1055,3.51333,167.427,264.595,896.224,85.28528529,-59.45945946,-1318.318318,-6100.66829,-11275.2338,14132.38237
1056,3.51666,167.711,264.397,891.834,64.97005988,-97.00598802,-1271.257485,-1559.970096,-9797.527457,-29824.36702
1057,3.52,167.928,264.073,887.588,59.75975976,-129.7297297,-1370.870871,1442.884326,14338.66299,33096.15922
1058,3.52333,168.127,263.641,883.023,64.56456456,-81.98198198,-1260.660661,5876.027616,-14132.11237,-16129.30836
1059,3.52666,168.342,263.368,878.825,84.13173653,-129.0419162,-1314.371257,-5318.973102,12471.4158,1875.194424
1060,3.53,168.623,262.937,874.435,66.36636637,-87.38738739,-1308.108108,2705.408111,8296.584873,8206.404603
1061,3.53333,168.844,262.646,870.079,75.37537538,-59.75975976,-1280.780781,7125.051361,-19007.24698,-11795.52536
1062,3.53666,169.095,262.447,865.814,99.10179641,-123.0538922,-1320.05988,-10700.12965,15264.01801,-3164.895327
1063,3.54,169.426,262.036,861.405,63.36336336,-72.07207207,-1330.630631,8386.765144,-4148.292437,8116.224332
1064,3.54333,169.637,261.796,856.974,91.29129129,-85.88588589,-1303.603604,-8893.286662,-2530.177585,-5391.376163
1065,3.54666,169.941,261.51,852.633,61.67664671,-94.31137725,-1321.556886,5899.62116,7917.218377,-1637.766706
1066,3.55,170.147,261.195,848.219,81.38138138,-67.86786787,-1327.027027,-9559.108658,-7394.78217,811.6224333
1067,3.55333,170.418,260.969,843.8,49.54954955,-92.49249249,-1324.324324,14431.00326,2870.378605,3438.460309
1068,3.55666,170.583,260.661,839.39,97.60479042,-82.93413174,-1312.874251,-6295.872408,5859.511489,-3428.165517
1069,3.56,170.909,260.384,835.005,76.57657658,-63.36336336,-1324.324324,7575.14271,-1533.064596,1442.884326
1070,3.56333,171.164,260.173,830.595,101.8018018,-68.46846847,-1319.51952,-8273.364804,-3355.030058,-7804.643398
1071,3.56666,171.503,259.945,826.201,74.25149701,-79.64071856,-1345.508982,4921.914277,10268.07581,11467.59725
1072,3.57,171.751,259.679,821.707,90.69069069,-45.34534535,-1307.207207,-6943.880818,-4689.374059,-13436.86028
1073,3.57333,172.053,259.528,817.354,67.56756757,-60.96096096,-1351.951952,5693.507069,-7227.921669,3553.210653
1074,3.57666,172.278,259.325,812.852,86.52694611,-85.02994012,-1340.11976,-6665.473606,17276.23137,7156.749779
1075,3.58,172.567,259.041,808.376,64.26426426,-27.32732733,-1316.216216,2885.768652,-10100.19028,-15961.90785
1076,3.58333,172.781,258.95,803.993,73.87387387,-60.96096096,-1369.369369,15308.23589,9675.209006,2489.947465
1077,3.58666,173.027,258.747,799.433,124.8502994,-28.74251497,-1361.077844,-27580.10978,-2003.868403,5969.072806
1078,3.59,173.444,258.651,794.887,32.73273273,-35.43543544,-1341.141141,22905.78867,1172.343515,-3877.751626
1079,3.59333,173.553,258.533,790.421,109.009009,-31.53153153,-1354.054054,-7830.293475,-9322.317948,8679.986023
1080,3.59666,173.916,258.428,785.912,82.93413174,-62.5748503,-1325.149701,-12512.87144,11721.98409,-12699.96017
1081,3.6,174.193,258.219,781.486,41.14114114,-23.42342342,-1367.567568,20470.92137,5771.537303,9919.82974
1082,3.60333,174.33,258.141,776.932,109.3093093,-4.204204204,-1334.534535,-5133.255389,-13302.93988,-7881.053627
1083,3.60666,174.694,258.127,772.488,92.21556886,-48.50299401,-1360.778443,-2254.755742,7688.674009,-4280.428731
1084,3.61,175.002,257.965,767.943,84.68468468,-22.82282282,-1375.075075,-6042.078114,8837.666495,7484.96244
1085,3.61333,175.284,257.889,763.364,64.56456456,6.606606607,-1350.15015,8753.156242,-20865.12255,-7956.923855
1086,3.61666,175.499,257.911,758.868,93.71257485,-62.8742515,-1376.646707,-1444.217354,14059.38191,9641.395851
1087,3.62,175.812,257.701,754.27,88.88888889,-15.91591592,-1344.444444,-5050.09514,11993.97596,-11452.89434
1088,3.62333,176.108,257.648,749.793,72.07207207,24.02402402,-1382.582583,15489.67644,-11440.2043,5199.135587
1089,3.62666,176.348,257.728,745.189,123.6526946,-14.07185629,-1365.269461,-16612.13367,5561.784668,1559.700904
1090,3.63,176.761,257.681,740.629,68.16816817,4.504504505,-1360.06006,4418.833248,-4869.734599,-5140.275411
1091,3.63333,176.988,257.696,736.1,82.88288288,-11.71171171,-1377.177177,2892.518672,13676.891,10498.98148
1092,3.63666,177.264,257.657,731.514,92.51497006,33.83233533,-1342.215569,-9357.397844,-12646.92926,-26471.57538
1093,3.64,177.573,257.77,727.031,61.26126126,-8.408408408,-1430.630631,20020.02002,10641.2719,21102.18326
1094,3.64333,177.777,257.742,722.267,127.9279279,27.02702703,-1360.36036,-18276.89479,-4070.262203,593.7317801
1095,3.64666,178.203,257.832,717.737,67.06586826,13.47305389,-1358.383234,-479.1625144,1450.677972,-16326.25131
1096,3.65,178.427,257.877,713.2,65.46546547,18.31831832,-1412.912913,19929.83975,2705.408111,11813.61542
1097,3.65333,178.645,257.938,708.495,131.8318318,27.32732733,-1373.573574,-5513.146528,7258.16176,-23.76007124
1098,3.65666,179.084,258.029,703.921,113.4730539,51.49700599,-1373.652695,-15902.00405,-7685.982084,473.2402811
1099,3.66,179.463,258.201,699.333,60.36036036,25.82582583,-1372.072072,13166.31947,-1983.965948,-8657.305955
